Subject ID,Trial Number,Response Type,Number of Letters,Position of Probed Letter,Probe Start Time,Probe End Time,Response Time
2,1,S202,8,5,234262,234462,15405
2,2,S201,5,,,,14177
2,3,S101,7,3,490029,490229,14126
2,4,S101,4,1,628583,628783,10691
2,5,S102,7,,,,16942
2,6,S101,4,4,981888,982088,10679
2,7,S101,8,3,1068922,1069122,10446
2,8,S101,6,3,1246325,1246525,8934
2,9,S102,6,,,,16613
2,10,S102,6,,,,12776
2,11,S101,5,5,1748689,1748889,10607
2,12,S102,7,,,,11417
2,13,S201,7,,,,9311
2,14,S201,5,,,,26105
2,15,S201,7,,,,10847
2,16,S101,6,5,2449130,2449330,9399
2,17,S102,5,,,,12325
2,18,S102,7,,,,24599
2,19,S102,4,,,,15953
2,20,S102,8,,,,13596
2,21,S102,8,,,,13895
2,22,S101,4,3,3370825,3371025,15277
2,23,S202,7,5,3524719,3524919,18628
2,24,S101,8,8,3740137,3740337,14482
2,25,S102,6,,,,12339
2,26,S102,7,,,,15640
2,27,S101,8,1,4121786,4121986,27715
2,28,S101,8,4,4359046,4359246,14322
2,29,S102,5,,,,34194
2,30,S101,7,6,4727524,4727724,14052
2,31,S102,4,,,,12627
2,32,S101,4,3,236096,236296,12620
2,33,S101,4,4,392991,393191,15498
2,34,S101,8,7,541549,541749,11712
2,35,S101,6,4,677769,677969,7585
2,36,S201,7,,,,11716
2,37,S102,8,,,,12971
2,38,S101,6,4,1149954,1150154,12003
2,39,S201,7,,,,10190
2,40,S102,7,,,,13178
2,41,S102,7,,,,16128
2,42,S102,5,,,,12225
2,43,S101,5,4,1916922,1917122,12959
2,44,S102,7,,,,12396
2,45,S101,4,3,2205368,2205568,13837
2,46,S101,5,2,2315411,2315611,18350
2,47,S101,7,5,2500817,2501017,10843
2,48,S201,5,,,,13873
2,49,S101,8,5,2784429,2784629,7672
2,50,S101,5,3,2930819,2931019,9216
2,51,S101,4,4,3098718,3098918,7099
2,52,S101,5,2,3167912,3168112,14121
2,53,S102,6,,,,30729
2,54,S102,4,,,,12229
2,55,S201,7,,,,16817
2,56,S102,4,,,,11125
2,57,S102,6,,,,10548
2,58,S102,6,,,,11586
2,59,S201,5,,,,17945
2,60,S101,5,5,4356879,4357079,20463
2,61,S102,6,,,,10008
2,62,S101,6,2,218089,218289,11231
2,63,S102,6,,,,9682
2,64,S102,8,,,,13013
2,65,S102,6,,,,9955
2,66,S101,5,3,859340,859540,16066
2,67,S102,7,,,,10735
2,68,S102,8,,,,11623
2,69,S101,6,1,1313685,1313885,14552
2,70,S101,5,2,1481084,1481284,12943
2,71,S101,6,6,1695168,1695368,10053
2,72,S101,8,1,1753191,1753391,10488
2,73,S101,6,6,2021463,2021663,9770
2,74,S102,5,,,,12524
2,75,S201,8,,,,16386
2,76,S201,8,,,,17938
2,77,S102,8,,,,10140
2,78,S101,8,5,2781261,2781461,14099
2,79,S102,6,,,,13245
2,80,S102,5,,,,13137
2,81,S101,6,4,3237606,3237806,10874
2,82,S101,8,4,3387498,3387698,10463
2,83,S102,4,,,,15507
2,84,S101,6,5,3705123,3705323,15074
2,85,S102,7,,,,18425
2,86,S101,8,5,4030417,4030617,12119
2,87,S202,5,2,4167137,4167337,13653
2,88,S101,5,4,4315029,4315229,10894
2,89,S102,6,,,,14316
2,90,S101,6,5,4617981,4618181,13288
3,1,S101,6,4,644242,644442,12914
3,2,S101,8,7,838485,838685,10357
3,3,S102,4,,,,9789
3,4,S202,4,3,1079413,1079613,10215
3,5,S201,5,,,,10627
3,6,S102,8,,,,18971
3,7,S101,5,5,1532425,1532625,9351
3,8,S101,7,6,1660642,1660842,11651
3,9,S102,6,,,,10899
3,10,S101,6,3,1932082,1932282,12091
3,11,S102,4,,,,9381
3,12,S102,8,,,,11613
3,13,S101,5,1,2352580,2352780,10613
3,14,S102,7,,,,11745
3,15,S101,5,3,2680542,2680742,10570
3,16,S101,6,5,2844107,2844307,9533
3,17,S101,6,6,3026345,3026545,15585
3,18,S102,4,,,,14662
3,19,S101,7,6,3285780,3285980,15632
3,20,S102,6,,,,9914
3,21,S101,7,5,3588566,3588766,12516
3,22,S102,8,,,,11091
3,23,S101,8,7,3960378,3960578,8926
3,24,S101,4,1,4051247,4051447,9704
3,25,S101,4,4,4233652,4233852,8210
3,26,S101,5,4,4332358,4332558,13746
3,27,S102,5,,,,10900
3,28,S102,6,,,,9210
3,29,S202,8,2,4725512,4725712,14963
3,30,S101,8,6,4945599,4945799,9209
3,31,S101,6,4,141211,141411,9347
3,32,S102,8,,,,10771
3,33,S102,5,,,,9482
3,34,S202,5,1,558375,558575,8725
3,35,S102,5,,,,7914
3,36,S201,7,,,,11393
3,37,S102,8,,,,7696
3,38,S101,6,3,1154442,1154642,8212
3,39,S101,4,2,1287160,1287360,11422
3,40,S102,7,,,,11400
3,41,S202,6,3,1587277,1587477,10651
3,42,S102,8,,,,9545
3,43,S102,7,,,,9915
3,44,S102,5,,,,8018
3,45,S102,5,,,,7635
3,46,S101,4,2,2307895,2308095,7665
3,47,S102,7,,,,7787
3,48,S101,4,1,2572332,2572532,8132
3,49,S202,8,3,2719057,2719257,7206
3,50,S201,8,,,,9600
3,51,S102,7,,,,7164
3,52,S102,6,,,,8339
3,53,S102,4,,,,6418
3,54,S101,7,7,3533376,3533576,7392
3,55,S101,8,7,3673765,3673965,10177
3,56,S101,7,4,3808484,3808684,8278
3,57,S101,4,4,3989389,3989589,6199
3,58,S101,5,1,4043577,4043777,6689
3,59,S101,6,1,4174795,4174995,12211
3,60,S101,4,2,4339860,4340060,9016
3,61,S101,8,1,70017,70217,7392
3,62,S101,6,4,286935,287135,8084
3,63,S102,7,,,,12998
3,64,S101,6,4,599558,599758,10583
3,65,S102,6,,,,8426
3,66,S201,7,,,,9643
3,67,S101,4,3,1025559,1025759,9678
3,68,S101,4,4,1179453,1179653,5946
3,69,S101,6,5,1289996,1290196,7978
3,70,S101,7,5,1436554,1436754,6331
3,71,S102,6,,,,10424
3,72,S102,5,,,,7388
3,73,S101,8,6,1890899,1891099,7447
3,74,S102,7,,,,12542
3,75,S101,5,5,2236534,2236734,6216
3,76,S101,4,1,2290722,2290922,9502
3,77,S101,4,2,2424775,2424975,6571
3,78,S101,8,2,2541654,2541854,6665
3,79,S101,4,2,2715389,2715589,7528
3,80,S101,8,3,2847441,2847641,7904
3,81,S101,5,5,3070529,3070729,5124
3,82,S102,7,,,,9830
3,83,S101,6,4,3328961,3329161,8020
3,84,S101,5,2,3447343,3447543,7956
3,85,S101,7,4,3608240,3608440,7424
3,86,S101,6,4,3768636,3768836,5704
3,87,S102,6,,,,7255
3,88,S102,4,,,,8099
3,89,S102,8,,,,7013
3,90,S102,7,,,,8276
4,1,S102,4,,,,15654
4,2,S202,4,4,533699,533899,8963
4,3,S202,7,6,642908,643108,8483
4,4,S202,8,4,757453,757653,9704
4,5,S202,8,2,887342,887542,9887
4,6,S101,4,1,1045737,1045937,15997
4,7,S101,8,2,1186292,1186492,17802
4,8,S101,8,6,1413355,1413555,16480
4,9,S102,5,,,,13850
4,10,S102,8,,,,18461
4,11,S103,,,,,
4,12,S101,6,5,2099958,2100158,13227
4,13,S202,5,1,2195162,2195362,12159
4,14,S101,6,1,2313375,2313575,13866
4,15,S201,4,,,,13809
4,16,S201,8,,,,13385
4,17,S101,7,2,2747545,2747745,15612
4,18,S101,7,2,2915945,2916145,16869
4,19,S101,8,1,3071506,3071706,12393
4,20,S201,8,,,,15303
4,21,S202,6,1,3414640,3414840,13367
4,22,S102,7,,,,13825
4,23,S202,8,1,3715092,3715292,16196
4,24,S101,4,2,3894162,3894362,12600
4,25,S202,6,1,4002871,4003071,12446
4,26,S201,8,,,,11267
4,27,S101,8,6,4366180,4366380,11898
4,28,S201,7,,,,11377
4,29,S101,8,3,4648458,4648658,11364
4,30,S101,7,3,4826861,4827061,11503
4,31,S201,8,,,,15215
4,32,S101,5,4,477510,477710,9508
4,33,S102,8,,,,12688
4,34,S201,6,,,,13331
4,35,S101,6,1,882336,882536,12906
4,36,S202,8,7,1118928,1119128,14195
4,37,S102,5,,,,11246
4,38,S201,7,,,,13632
4,39,S202,7,3,1508748,1508948,16015
4,40,S101,4,4,1693154,1693354,9067
4,41,S202,4,3,1778521,1778721,12718
4,42,S101,4,1,1854884,1855084,10708
4,43,S202,8,4,2018448,2018648,12081
4,44,S101,4,3,2164839,2165039,11859
4,45,S101,8,8,2377756,2377956,9340
4,46,S103,,,,,
4,47,S101,8,1,2586171,2586371,9659
4,48,S202,4,3,2791251,2791451,11206
4,49,S101,7,5,2922636,2922836,9834
4,50,S101,6,5,3085367,3085567,9786
4,51,S201,6,,,,14391
4,52,S101,4,3,3339967,3340167,10546
4,53,S102,5,,,,13917
4,54,S101,7,2,3585063,3585263,11555
4,55,S102,6,,,,13364
4,56,S101,5,1,3887348,3887548,18053
4,57,S102,5,,,,11831
4,58,S101,7,2,4180630,4180830,11631
4,59,S101,7,6,4401716,4401916,9039
4,60,S102,6,,,,12549
4,61,S102,5,,,,12336
4,62,S201,6,,,,9946
4,63,S101,7,7,492183,492383,8786
4,64,S202,8,2,563044,563244,10238
4,65,S201,4,,,,14894
4,66,S202,7,4,856826,857026,9533
4,67,S202,6,3,986710,986910,9894
4,68,S101,4,3,1116761,1116961,8637
4,69,S201,8,,,,8333
4,70,S101,7,1,1364191,1364391,8833
4,71,S102,7,,,,12266
4,72,S102,8,,,,10857
4,73,S201,5,,,,911
4,74,S201,4,,,,11221
4,75,S202,8,6,2150000,2150200,7845
4,76,S201,6,,,,9401
4,77,S101,7,4,2407767,2407967,11618
4,78,S101,5,5,2606178,2606378,13341
4,79,S202,8,4,2710053,2710253,13645
4,80,S201,7,,,,8010
4,81,S101,7,4,3014672,3014872,9806
4,82,S102,6,,,,11206
4,83,S201,7,,,,11191
4,84,S101,4,4,3492526,3492726,12605
4,85,S101,4,1,3553050,3553250,10998
4,86,S201,7,,,,9548
4,87,S202,6,6,3909023,3909223,13602
4,88,S201,5,,,,9396
4,89,S101,5,2,4081924,4082124,11762
4,90,S101,8,5,4260661,4260861,7168
5,1,S102,5,,,,11220
5,2,S102,6,,,,8714
5,3,S101,4,4,480511,480711,8378
5,4,S102,7,,,,14560
5,5,S101,7,6,775127,775327,11367
5,6,S101,4,4,930855,931055,8363
5,7,S101,6,1,987211,987411,8212
5,8,S101,4,3,1162446,1162646,7415
5,9,S102,5,,,,11380
5,10,S102,7,,,,10236
5,11,S101,6,2,1564937,1565137,17702
5,12,S102,7,,,,13585
5,13,S102,6,,,,8425
5,14,S101,7,2,2034789,2034989,11243
5,15,S101,7,4,2227198,2227398,13149
5,16,S102,4,,,,11041
5,17,S102,6,,,,12065
5,18,S102,5,,,,16331
5,19,S101,4,4,2825933,2826133,11048
5,20,S202,7,4,2927473,2927673,19687
5,21,S101,5,2,3053189,3053389,8036
5,22,S102,5,,,,8291
5,23,S101,5,4,3346804,3347004,10465
5,24,S101,6,5,3496029,3496229,8143
5,25,S102,5,,,,11284
5,26,S102,6,,,,9893
5,27,S102,7,,,,7687
5,28,S202,8,1,4031073,4031273,16863
5,29,S101,8,3,4224982,4225182,8776
5,30,S102,5,,,,20862
5,31,S101,4,2,55678,55878,9600
5,32,S101,5,5,237916,238116,6914
5,33,S101,7,2,306943,307143,17801
5,34,S101,5,5,539868,540068,7906
5,35,S102,7,,,,7372
5,36,S201,4,,,,10286
5,37,S102,7,,,,9424
5,38,S102,8,,,,8917
5,39,S101,4,2,1210965,1211165,12098
5,40,S102,4,,,,8901
5,41,S102,5,,,,14086
5,42,S101,5,3,1605787,1605987,9133
5,43,S102,6,,,,11519
5,44,S101,7,1,1861220,1861420,8604
5,45,S102,6,,,,7644
5,46,S102,7,,,,13366
5,47,S102,4,,,,7713
5,48,S102,4,,,,13177
5,49,S101,4,3,2605680,2605880,7851
5,50,S101,5,4,2738398,2738598,6825
5,51,S101,8,3,2855611,2855811,6584
5,52,S102,7,,,,11870
5,53,S101,6,1,3165733,3165933,6453
5,54,S102,7,,,,9990
5,55,S102,5,,,,8072
5,56,S102,7,,,,5936
5,57,S101,6,2,3779474,3779674,8927
5,58,S102,7,,,,18760
5,59,S101,7,3,4113272,4113472,7229
5,60,S201,7,,,,15538
5,61,S102,8,,,,6215
5,62,S102,6,,,,7107
5,63,S101,8,7,461671,461871,7822
5,64,S101,4,4,614064,614264,6390
5,65,S102,8,,,,7116
5,66,S101,7,1,842987,843187,7896
5,67,S101,7,2,1018056,1018256,7844
5,68,S102,8,,,,8686
5,69,S102,7,,,,12125
5,70,S101,7,5,1562103,1562303,13196
5,71,S101,7,6,1742507,1742707,8129
5,72,S102,4,,,,8300
5,73,S202,8,2,1965261,1965461,9448
5,74,S201,7,,,,11984
5,75,S102,5,,,,7849
5,76,S102,8,,,,15892
5,77,S102,5,,,,11829
5,78,S101,5,2,2721558,2721758,12736
5,79,S101,7,6,2915634,2915834,8651
5,80,S101,7,2,3020509,3020709,7130
5,81,S101,4,2,3180572,3180772,8774
5,82,S102,4,,,,9880
5,83,S101,5,2,3419832,3420032,9103
5,84,S102,4,,,,17885
5,85,S102,8,,,,12561
5,86,S102,5,,,,9277
5,87,S101,8,7,4066086,4066286,6374
5,88,S101,5,5,4231151,4231351,6369
5,89,S102,8,,,,10952
5,90,S101,6,1,4463409,4463609,6378
6,1,S102,8,,,,7567
6,2,S103,,,,,
6,3,S103,,,,,
6,4,S103,,,,,
6,5,S202,8,2,1050902,1051102,20213
6,6,S102,8,,,,14069
6,7,S102,6,,,,15463
6,8,S102,8,,,,12648
6,9,S102,5,,,,14332
6,10,S102,4,,,,14257
6,11,S102,5,,,,9147
6,12,S101,5,2,2131492,2131692,17055
6,13,S102,8,,,,13376
6,14,S202,5,3,2467624,2467824,11022
6,15,S101,5,4,2598842,2599042,11570
6,16,S102,5,,,,10408
6,17,S101,7,4,2869782,2869982,11067
6,18,S101,4,3,3019507,3019707,12245
6,19,S101,7,6,3184572,3184772,10590
6,20,S201,7,,,,10762
6,21,S202,5,2,3436337,3436537,11641
6,22,S102,6,,,,12727
6,23,S101,8,8,3810317,3810517,13382
6,24,S102,4,,,,11103
6,25,S201,8,,,,11182
6,26,S202,7,1,4152785,4152985,22466
6,27,S201,8,,,,12572
6,28,S102,4,,,,10571
6,29,S201,6,,,,20109
6,30,S202,5,2,4746018,4746218,10362
6,31,S101,4,1,245752,245952,12082
6,32,S102,4,,,,18186
6,33,S101,8,3,525029,525229,16696
6,34,S102,4,,,,29346
6,35,S201,8,,,,9802
6,36,S202,5,4,1021057,1021257,14559
6,37,S101,6,6,1189956,1190156,14893
6,38,S102,4,,,,17841
6,39,S102,7,,,,11798
6,40,S101,8,3,1573940,1574140,8167
6,41,S202,6,3,1749176,1749376,12991
6,42,S202,6,1,1854217,1854417,15933
6,43,S201,5,,,,11477
6,44,S102,5,,,,16327
6,45,S202,7,2,2263210,2263410,14349
6,46,S101,4,1,2397763,2397963,11633
6,47,S102,8,,,,21786
6,48,S101,7,4,2750902,2751102,26967
6,49,S101,4,3,2916467,2916667,18552
6,50,S101,4,4,3079364,3079564,11745
6,51,S102,5,,,,13622
6,52,S101,5,5,3353638,3353838,11263
6,53,S102,8,,,,11975
6,54,S101,8,3,3620076,3620276,10900
6,55,S102,7,,,,20031
6,56,S102,8,,,,28889
6,57,S202,6,2,4152618,4152818,18164
6,58,S202,6,2,4291006,4291206,12740
6,59,S202,4,2,4424225,4424425,16492
6,60,S102,4,,,,9847
6,61,S101,6,2,129207,129407,12255
6,62,S102,7,,,,19573
6,63,S201,7,,,,13464
6,64,S202,4,4,648410,648610,12070
6,65,S201,5,,,,15453
6,66,S102,6,,,,18157
6,67,S101,5,5,1044899,1045099,12250
6,68,S202,6,3,1133434,1133634,10988
6,69,S102,4,,,,23304
6,70,S101,4,4,1432385,1432585,9258
6,71,S201,5,,,,28374
6,72,S101,5,1,1624126,1624326,16539
6,73,S102,5,,,,12932
6,74,S101,5,3,1931080,1931280,13643
6,75,S101,6,4,2083307,2083507,11049
6,76,S201,8,,,,10487
6,77,S102,5,,,,29314
6,78,S202,7,3,2531649,2531849,25231
6,79,S101,8,3,2691212,2691412,8492
6,80,S101,6,1,2838603,2838803,10097
6,81,S201,6,,,,9402
6,82,S102,4,,,,20494
6,83,S202,6,3,3276275,3276475,17466
6,84,S202,4,2,3399823,3400023,11421
6,85,S102,5,,,,10351
6,86,S101,7,2,3637916,3638116,17899
6,87,S202,6,2,3808650,3808850,30835
6,88,S102,8,,,,12598
6,89,S103,,,,,
6,90,S202,6,1,4304511,4304711,29936
7,1,S101,7,7,1176785,1176985,7121
7,2,S202,7,5,1288495,1288695,16083
7,3,S101,5,4,1424882,1425082,13062
7,4,S101,6,4,1562436,1562636,9204
7,5,S102,4,,,,11094
7,6,S102,6,,,,11001
7,7,S101,5,1,1938917,1939117,10501
7,8,S102,7,,,,10354
7,9,S101,7,7,2342075,2342275,10374
7,10,S101,8,3,2428776,2428976,12882
7,11,S101,5,5,2656866,2657066,6382
7,12,S101,5,5,2787750,2787950,8148
7,13,S101,4,4,2906130,2906330,4636
7,14,S102,6,,,,12480
7,15,S102,8,,,,13308
7,16,S101,7,4,3332631,3332831,9693
7,17,S101,6,1,3452678,3452878,8371
7,18,S102,7,,,,10229
7,19,S101,7,7,3867674,3867874,6890
7,20,S102,5,,,,11520
7,21,S102,7,,,,10694
7,22,S202,4,2,4236319,4236519,9480
7,23,S201,5,,,,10243
7,24,S101,6,1,4439732,4439932,8024
7,25,S102,7,,,,11658
7,26,S101,7,6,4821882,4822082,15470
7,27,S101,5,5,4995784,4995984,6630
7,28,S102,4,,,,10547
7,29,S102,7,,,,14405
7,30,S101,8,6,5409279,5409479,19151
7,31,S101,6,3,171890,172090,10386
7,32,S101,6,5,349293,349493,7435
7,33,S102,6,,,,9881
7,34,S102,4,,,,8220
7,35,S101,5,2,720105,720305,16163
7,36,S101,5,5,923185,923385,8411
7,37,S102,8,,,,9716
7,38,S101,5,5,1232807,1233007,10389
7,39,S101,7,4,1333680,1333880,9769
7,40,S101,4,3,1482071,1482271,11477
7,41,S102,6,,,,9288
7,42,S101,4,2,1737505,1737705,14061
7,43,S101,8,6,1918576,1918776,8254
7,44,S102,4,,,,12105
7,45,S102,6,,,,11011
7,46,S101,5,2,2309229,2309429,9864
7,47,S101,7,1,2429610,2429810,13267
7,48,S101,5,5,2672372,2672572,7869
7,49,S102,4,,,,8048
7,50,S102,5,,,,11671
7,51,S201,6,,,,13315
7,52,S101,6,1,3116379,3116579,13694
7,53,S102,5,,,,12449
7,54,S102,6,,,,11661
7,55,S102,6,,,,12663
7,56,S101,7,4,3749961,3750161,16116
7,57,S202,6,2,3890516,3890716,11180
7,58,S101,7,1,4007729,4007929,10609
7,59,S101,4,3,4199471,4199671,9242
7,60,S101,4,4,4353031,4353231,6485
7,61,S102,4,,,,9811
7,62,S101,6,1,222410,222610,13295
7,63,S102,4,,,,10542
7,64,S102,7,,,,18246
7,65,S101,6,1,666251,666451,13225
7,66,S102,7,,,,11211
7,67,S101,5,1,982208,982408,11346
7,68,S101,6,6,1208797,1208997,11399
7,69,S101,5,5,1344684,1344884,8964
7,70,S201,5,,,,10151
7,71,S102,7,,,,13151
7,72,S101,7,6,1754345,1754545,8413
7,73,S101,7,2,1859052,1859252,7069
7,74,S101,7,6,2075637,2075837,7218
7,75,S102,4,,,,8384
7,76,S101,4,1,2283552,2283752,8865
7,77,S101,7,6,2473627,2473827,5899
7,78,S102,5,,,,11368
7,79,S101,6,6,2788084,2788284,7418
7,80,S102,6,,,,9679
7,81,S201,8,,,,9650
7,82,S101,7,3,3179070,3179270,11226
7,83,S101,8,1,3314957,3315157,12254
7,84,S102,7,,,,11560
7,85,S101,7,1,3658759,3658959,10568
7,86,S102,4,,,,13358
7,87,S101,5,3,3974549,3974749,10030
7,88,S101,5,3,4109436,4109636,6841
7,89,S101,4,2,4226815,4227015,7847
7,90,S101,7,4,4373539,4373739,7644
8,1,S103,,,,,
8,2,S101,6,4,616898,617098,8883
8,3,S102,4,,,,12547
8,4,S202,7,1,844821,845021,7353
8,5,S202,7,4,1029060,1029260,10296
8,6,S102,6,,,,9036
8,7,S101,6,2,1292997,1293197,12385
8,8,S201,8,,,,12731
8,9,S102,5,,,,7436
8,10,S101,5,5,1799696,1799896,9482
8,11,S102,8,,,,13630
8,12,S201,6,,,,8633
8,13,S102,5,,,,9589
8,14,S101,6,1,2300560,2300760,10194
8,15,S101,6,2,2463624,2463824,6920
8,16,S102,7,,,,10442
8,17,S202,5,2,2772579,2772779,16376
8,18,S102,7,,,,8224
8,19,S102,8,,,,7613
8,20,S101,7,3,3244931,3245131,6140
8,21,S102,8,,,,11699
8,22,S102,6,,,,8054
8,23,S102,5,,,,10235
8,24,S102,7,,,,12183
8,25,S201,6,,,,10600
8,26,S202,5,3,4159790,4159990,7479
8,27,S101,8,8,4363870,4364070,6824
8,28,S201,6,,,,9777
8,29,S102,8,,,,6466
8,30,S102,4,,,,11348
8,31,S101,4,2,140378,140578,12114
8,32,S102,8,,,,9749
8,33,S201,5,,,,6738
8,34,S102,5,,,,6490
8,35,S102,7,,,,8421
8,36,S201,5,,,,9145
8,37,S102,5,,,,7846
8,38,S202,5,1,1077746,1077946,5866
8,39,S201,6,,,,10378
8,40,S202,5,5,1397038,1397238,5174
8,41,S102,5,,,,9465
8,42,S102,7,,,,10321
8,43,S102,5,,,,8245
8,44,S201,5,,,,11060
8,45,S202,4,1,1978933,1979133,7506
8,46,S101,7,4,2120822,2121022,11884
8,47,S102,6,,,,9676
8,48,S101,4,2,2405601,2405801,6577
8,49,S201,8,,,,6510
8,50,S202,6,1,2663369,2663569,6195
8,51,S102,5,,,,10606
8,52,S102,4,,,,12603
8,53,S102,6,,,,6361
8,54,S202,4,4,3255268,3255468,11886
8,55,S102,6,,,,12002
8,56,S102,8,,,,9638
8,57,S101,7,5,3680602,3680802,7925
8,58,S102,4,,,,8585
8,59,S101,6,5,3960212,3960412,9389
8,60,S102,4,,,,13192
8,61,S101,6,3,428991,429191,11975
8,62,S102,8,,,,8175
8,63,S102,6,,,,8512
8,64,S201,6,,,,11881
8,65,S101,5,3,1034229,1034429,6137
8,66,S202,6,1,1136436,1136636,6880
8,67,S202,4,3,1291830,1292030,7983
8,68,S102,5,,,,9130
8,69,S202,8,4,1539261,1539461,12009
8,70,S202,8,3,1685651,1685851,7485
8,71,S102,8,,,,9699
8,72,S102,7,,,,9424
8,73,S201,4,,,,6821
8,74,S102,6,,,,8247
8,75,S101,6,2,2412437,2412637,7936
8,76,S101,5,3,2573333,2573533,8521
8,77,S101,4,2,2692213,2692413,10756
8,78,S102,4,,,,5696
8,79,S102,7,,,,6858
8,80,S201,8,,,,6619
8,81,S201,7,,,,8793
8,82,S102,6,,,,13519
8,83,S102,4,,,,11394
8,84,S201,7,,,,10731
8,85,S101,8,6,3863007,3863207,7054
8,86,S102,4,,,,8545
8,87,S101,8,8,4204141,4204341,8239
8,88,S102,7,,,,8978
8,89,S102,6,,,,8968
8,90,S202,4,3,4598129,4598329,12472
9,1,S101,6,3,344124,344324,14557
9,2,S102,8,,,,11614
9,3,S102,5,,,,9332
9,4,S102,6,,,,11226
9,5,S101,6,4,973869,974069,6959
9,6,S101,5,5,1153442,1153642,5981
9,7,S102,5,,,,10809
9,8,S102,6,,,,11208
9,9,S101,4,4,1554767,1554967,5327
9,10,S101,7,1,1608121,1608321,8745
9,11,S101,4,2,1783856,1784056,10174
9,12,S101,6,1,1890232,1890432,9944
9,13,S101,4,4,2101314,2101514,7161
9,14,S102,6,,,,10420
9,15,S101,8,1,2305561,2305761,6839
9,16,S101,8,5,2536152,2536352,7880
9,17,S101,5,5,2730895,2731095,6545
9,18,S101,7,6,2856278,2856478,5903
9,19,S102,4,,,,14009
9,20,S101,8,4,3111211,3111411,7241
9,21,S101,7,5,3299618,3299818,6736
9,22,S201,8,,,,9547
9,23,S102,4,,,,11825
9,24,S102,6,,,,11859
9,25,S102,7,,,,12138
9,26,S101,5,3,4026737,4026937,10637
9,27,S102,8,,,,9613
9,28,S101,6,6,4400717,4400917,5253
9,29,S101,5,3,4482249,4482449,6902
9,30,S202,4,2,4599462,4599662,12246
9,31,S102,4,,,,9715
9,32,S102,7,,,,9438
9,33,S202,8,5,603560,603760,11664
9,34,S102,6,,,,11787
9,35,S102,4,,,,11334
9,36,S102,5,,,,9379
9,37,S102,5,,,,8943
9,38,S201,5,,,,9167
9,39,S102,7,,,,9956
9,40,S101,5,2,1538593,1538793,11422
9,41,S101,6,3,1688652,1688852,7792
9,42,S101,4,3,1835043,1835243,6373
9,43,S101,6,6,2014113,2014313,5821
9,44,S101,8,8,2187015,2187215,4818
9,45,S101,4,3,2268213,2268413,6395
9,46,S202,7,1,2356581,2356781,11376
9,47,S101,5,5,2579002,2579202,4851
9,48,S101,4,4,2694047,2694247,4352
9,49,S101,8,6,2817262,2817462,11419
9,50,S101,7,6,2995665,2995865,5148
9,51,S101,5,5,3159230,3159430,4241
9,52,S101,6,5,3268106,3268306,7780
9,53,S101,4,2,3371980,3372180,6843
9,54,S202,8,2,3489192,3489392,9646
9,55,S202,8,3,3661427,3661627,13551
9,56,S201,4,,,,5740
9,57,S201,8,,,,7232
9,58,S101,6,5,4105101,4105301,6250
9,59,S201,7,,,,7391
9,60,S101,7,6,4405886,4406086,5688
9,61,S101,6,5,273263,273463,7423
9,62,S102,6,,,,11319
9,63,S102,8,,,,8186
9,64,S102,6,,,,9644
9,65,S201,6,,,,9770
9,66,S202,5,1,966035,966235,10520
9,67,S101,6,3,1111092,1111292,5715
9,68,S101,4,2,1241310,1241510,5659
9,69,S101,7,3,1371528,1371728,6179
9,70,S201,4,,,,16515
9,71,S101,4,4,1673146,1673346,4736
9,72,S201,6,,,,5530
9,73,S102,8,,,,9432
9,74,S102,8,,,,8606
9,75,S101,6,2,2217869,2218069,8533
9,76,S101,8,7,2435955,2436155,4223
9,77,S102,5,,,,8636
9,78,S102,5,,,,8393
9,79,S102,7,,,,9611
9,80,S201,8,,,,6383
9,81,S201,4,,,,9900
9,82,S201,7,,,,8099
9,83,S201,7,,,,5569
9,84,S201,4,,,,4792
9,85,S102,5,,,,8950
9,86,S101,5,5,3796156,3796356,6772
9,87,S202,5,1,3850844,3851044,9805
9,88,S102,5,,,,8639
9,89,S101,4,2,4113780,4113980,8951
9,90,S201,6,,,,5897
10,1,S103,,,,,
10,2,S201,7,,,,9076
10,3,S201,7,,,,9710
10,4,S202,4,3,1386395,1386595,11975
10,5,S101,4,3,1490103,1490303,13363
10,6,S202,5,3,1613818,1614018,21742
10,7,S102,7,,,,17715
10,8,S202,5,1,1883924,1884124,13261
10,9,S102,5,,,,14354
10,10,S102,5,,,,13076
10,11,S202,8,5,2336769,2336969,14991
10,12,S102,5,,,,13930
10,13,S102,8,,,,14055
10,14,S102,7,,,,11367
10,15,S202,8,2,2941674,2941874,11110
10,16,S102,6,,,,9819
10,17,S102,6,,,,10737
10,18,S102,5,,,,8800
10,19,S202,5,4,3560751,3560951,19444
10,20,S202,8,2,3657956,3658156,11744
10,21,S101,4,3,3832358,3832558,21948
10,22,S201,4,,,,17733
10,23,S101,5,5,4122306,4122506,11927
10,24,S102,7,,,,14283
10,25,S102,4,,,,11169
10,26,S102,5,,,,10335
10,27,S101,7,4,4648679,4648879,12268
10,28,S101,8,2,4785400,4785600,11340
10,29,S101,6,5,5006320,5006520,13473
10,30,S102,6,,,,14089
10,31,S201,4,,,,10555
10,32,S102,6,,,,11511
10,33,S102,8,,,,11091
10,34,S202,8,6,637907,638107,8917
10,35,S201,7,,,,12282
10,36,S102,7,,,,8467
10,37,S102,6,,,,26254
10,38,S101,5,1,1197461,1197661,9452
10,39,S202,8,6,1402208,1402408,19207
10,40,S101,7,2,1513252,1513452,12874
10,41,S101,7,4,1707495,1707695,9583
10,42,S101,6,3,1855886,1856086,9703
10,43,S101,7,5,2032789,2032989,11822
10,44,S101,4,2,2155004,2155204,11201
10,45,S102,7,,,,13904
10,46,S202,4,2,2443618,2443818,11118
10,47,S201,8,,,,20730
10,48,S202,5,1,2701553,2701753,16730
10,49,S201,7,,,,10658
10,50,S202,4,1,2969325,2969525,10166
10,51,S201,8,,,,10040
10,52,S102,8,,,,15841
10,53,S201,5,,,,32455
10,54,S101,7,7,3656262,3656462,22080
10,55,S102,4,,,,19449
10,56,S102,7,,,,11416
10,57,S202,5,4,4063255,4063455,10421
10,58,S102,7,,,,12286
10,59,S102,4,,,,11648
10,60,S102,4,,,,10400
10,61,S201,8,,,,7388
10,62,S102,8,,,,11371
10,63,S103,,,,,
10,64,S102,8,,,,8182
10,65,S202,4,4,834318,834518,8341
10,66,S202,8,1,872166,872366,12451
10,67,S201,8,,,,3268
10,68,S202,7,7,1289664,1289864,7173
10,69,S101,5,5,1403042,1403242,11066
10,70,S101,6,1,1462232,1462432,13689
10,71,S102,8,,,,20869
10,72,S201,6,,,,13335
10,73,S202,4,3,1964596,1964796,6973
10,74,S101,6,1,2034957,2035157,16738
10,75,S202,8,2,2204524,2204724,12269
10,76,S202,7,2,2365420,2365620,754
10,77,S101,6,4,2528985,2529185,6750
10,78,S102,8,,,,19806
10,79,S202,4,3,2847110,2847310,13274
10,80,S201,4,,,,10762
10,81,S202,6,4,3069031,3069231,10918
10,82,S102,6,,,,17482
10,83,S103,,,,,
10,84,S202,6,5,3521209,3521409,6098
10,85,S201,5,,,,8120
10,86,S202,6,3,3733292,3733492,6784
10,87,S201,5,,,,9902
10,88,S102,7,,,,9862
10,89,S201,8,,,,33368
10,90,S202,7,5,4349368,4349568,10454
11,1,S102,6,,,,12855
11,2,S101,6,2,894508,894708,15414
11,3,S101,7,1,1034396,1034596,10430
11,4,S102,8,,,,11024
11,5,S102,7,,,,14541
11,6,S102,6,,,,11587
11,7,S102,5,,,,15073
11,8,S102,5,,,,12333
11,9,S202,4,3,1997942,1998142,13137
11,10,S101,8,6,2145333,2145533,12741
11,11,S202,8,4,2296726,2296926,15318
11,12,S201,8,,,,12268
11,13,S201,6,,,,14294
11,14,S201,8,,,,10970
11,15,S102,6,,,,14169
11,16,S101,8,5,3082202,3082402,10439
11,17,S102,8,,,,15672
11,18,S101,8,6,3456516,3456716,12202
11,19,S202,6,1,3564892,3565092,14949
11,20,S101,4,2,3714284,3714484,10925
11,21,S102,5,,,,14599
11,22,S201,8,,,,11175
11,23,S102,4,,,,12108
11,24,S102,5,,,,12530
11,25,S102,5,,,,12446
11,26,S101,7,3,4544944,4545144,13348
11,27,S101,7,4,4725348,4725548,11809
11,28,S201,8,,,,15385
11,29,S201,7,,,,11928
11,30,S101,4,4,5220043,5220243,12187
11,31,S102,8,,,,10593
11,32,S202,5,2,237750,237950,10113
11,33,S201,7,,,,11669
11,34,S102,5,,,,10425
11,35,S102,6,,,,9077
11,36,S102,4,,,,8729
11,37,S102,8,,,,8740
11,38,S101,8,1,1063074,1063274,9390
11,39,S102,7,,,,8485
11,40,S101,6,3,1429218,1429418,9291
11,41,S101,6,1,1548765,1548965,13756
11,42,S101,4,4,1763517,1763717,8739
11,43,S102,7,,,,9144
11,44,S201,6,,,,10890
11,45,S201,6,,,,7684
11,46,S202,4,2,2255210,2255410,8431
11,47,S201,4,,,,7553
11,48,S101,5,2,2454955,2455155,11113
11,49,S201,4,,,,11328
11,50,S102,4,,,,10646
11,51,S202,8,8,2919638,2919838,16031
11,52,S101,7,1,2965323,2965523,11418
11,53,S101,4,3,3157898,3158098,16747
11,54,S101,4,4,3318962,3319162,15778
11,55,S102,8,,,,12310
11,56,S201,4,,,,12159
11,57,S102,7,,,,12670
11,58,S101,5,5,3908027,3908227,12906
11,59,S202,8,2,3983056,3983256,13712
11,60,S101,6,1,4131281,4131481,10228
11,61,S201,6,,,,11509
11,62,S101,6,4,229079,229279,8598
11,63,S102,4,,,,12115
11,64,S102,4,,,,11167
11,65,S101,6,5,634406,634606,11550
11,66,S202,6,4,770459,770659,14320
11,67,S201,4,,,,18013
11,68,S202,8,6,1043233,1043433,10852
11,69,S201,7,,,,9012
11,70,S201,5,,,,13474
11,71,S101,8,5,1451394,1451594,10821
11,72,S202,4,2,1586780,1586980,11038
11,73,S101,5,1,1675649,1675849,12222
11,74,S102,5,,,,11036
11,75,S101,4,3,1976267,1976467,10290
11,76,S201,7,,,,10476
11,77,S102,5,,,,9445
11,78,S101,7,4,2389596,2389796,9982
11,79,S101,4,4,2572168,2572368,9602
11,80,S201,4,,,,9396
11,81,S101,8,6,2801758,2801958,8821
11,82,S201,7,,,,10821
11,83,S101,6,3,3080368,3080568,10658
11,84,S101,5,3,3229760,3229960,8248
11,85,S101,4,3,3362479,3362679,8895
11,86,S101,6,3,3481692,3481892,11770
11,87,S101,7,6,3674602,3674802,9332
11,88,S101,5,5,3842501,3842701,12423
11,89,S201,5,,,,11550
11,90,S101,7,5,4077093,4077293,9037
12,1,S103,,,,,
12,2,S103,,,,,
12,3,S103,,,,,
12,4,S102,8,,,,21604
12,5,S202,4,1,1160877,1161077,10835
12,6,S202,8,6,1334445,1334645,11320
12,7,S101,6,1,1423314,1423514,15627
12,8,S202,7,5,1634230,1634430,21688
12,9,S102,7,,,,21497
12,10,S201,7,,,,16750
12,11,S202,7,3,2087576,2087776,12596
12,12,S202,5,3,2234634,2234834,19802
12,13,S102,8,,,,15137
12,14,S202,6,1,2514077,2514277,13282
12,15,S102,6,,,,12875
12,16,S102,4,,,,10294
12,17,S101,6,6,3010328,3010528,20002
12,18,S101,8,2,3092527,3092727,13477
12,19,S102,7,,,,13055
12,20,S102,7,,,,26101
12,21,S101,6,1,3603551,3603751,15934
12,22,S202,7,3,3786457,3786657,10928
12,23,S102,7,,,,11163
12,24,S202,5,1,4067567,4067767,9051
12,25,S201,7,,,,11447
12,26,S202,7,1,4328337,4328537,16312
12,27,S102,4,,,,10158
12,28,S101,8,8,4718491,4718691,14911
12,29,S201,4,,,,9688
12,30,S101,4,3,4911400,4911600,13395
12,31,S102,6,,,,15162
12,32,S201,6,,,,10257
12,33,S202,4,1,362132,362332,19398
12,34,S102,7,,,,22188
12,35,S101,5,5,724942,725142,20927
12,36,S102,7,,,,10440
12,37,S103,,,,,
12,38,S101,7,4,1136270,1136470,21121
12,39,S102,6,,,,12142
12,40,S102,7,,,,16739
12,41,S101,8,1,1587948,1588148,10826
12,42,S202,6,5,1822541,1822741,9454
12,43,S102,6,,,,10307
12,44,S101,8,7,2129328,2129528,15702
12,45,S102,5,,,,8448
12,46,S202,7,2,2374092,2374292,20077
12,47,S201,6,,,,11855
12,48,S101,6,6,2737401,2737601,13407
12,49,S102,6,,,,14340
12,50,S201,5,,,,10664
12,51,S101,8,8,3187579,3187779,14840
12,52,S202,5,1,3250437,3250637,11785
12,53,S101,6,2,3382322,3382522,13190
12,54,S102,7,,,,11651
12,55,S102,5,,,,7926
12,56,S202,8,7,3901860,3902060,17096
12,57,S101,7,7,4087433,4087633,6835
12,58,S102,5,,,,9860
12,59,S202,7,1,4276675,4276875,12459
12,60,S201,5,,,,14551
12,61,S102,6,,,,14434
12,62,S101,5,2,245419,245619,10437
12,63,S102,4,,,,12918
12,64,S102,7,,,,9312
12,65,S102,4,,,,8474
12,66,S102,6,,,,10565
12,67,S102,4,,,,10958
12,68,S101,6,3,1068911,1069111,20161
12,69,S101,5,2,1213634,1213834,14012
12,70,S101,8,7,1423050,1423250,9484
12,71,S101,6,3,1542764,1542964,9613
12,72,S101,5,3,1690989,1691189,7728
12,73,S202,5,2,1809036,1809236,13123
12,74,S202,6,2,1928082,1928282,11430
12,75,S202,8,2,2073973,2074173,8686
12,76,S102,5,,,,13806
12,77,S103,,,,,
12,78,S102,8,,,,10991
12,79,S102,4,,,,18413
12,80,S102,6,,,,17388
12,81,S101,7,7,3074034,3074234,13126
12,82,S202,6,3,3163403,3163603,10708
12,83,S101,4,4,3328468,3328668,9248
12,84,S102,6,,,,14352
12,85,S101,6,2,3552889,3553089,15406
12,86,S102,8,,,,13067
12,87,S102,6,,,,15456
12,88,S201,7,,,,13514
12,89,S101,6,3,4203312,4203512,11636
12,90,S202,6,2,4339366,4339566,11039
13,1,S201,6,,,,21927
13,2,S202,6,3,1096588,1096788,19727
13,3,S101,8,3,1236643,1236843,27392
13,4,S102,4,,,,10624
13,5,S202,7,2,1537761,1537961,11755
13,6,S101,7,3,1697991,1698191,11962
13,7,S202,4,1,1834378,1834578,9900
13,8,S101,6,6,2026954,2027154,9125
13,9,S202,6,5,2140665,2140865,11511
13,10,S201,8,,,,6679
13,11,S102,8,,,,12455
13,12,S102,8,,,,12799
13,13,S101,5,5,2806761,2806961,12711
13,14,S102,7,,,,10867
13,15,S201,7,,,,12145
13,16,S102,8,,,,11624
13,17,S102,4,,,,12460
13,18,S101,6,3,3507370,3507570,12790
13,19,S202,8,7,3715452,3715652,9437
13,20,S101,4,3,3816658,3816858,6596
13,21,S202,8,7,3990227,3990427,10531
13,22,S101,5,4,4106772,4106972,10293
13,23,S101,8,2,4213148,4213348,10561
13,24,S101,6,3,4404890,4405090,9845
13,25,S101,8,7,4610137,4610337,7563
13,26,S201,7,,,,10093
13,27,S101,6,1,4844229,4844429,10914
13,28,S102,5,,,,12822
13,29,S101,7,3,5159520,5159720,10016
13,30,S101,5,1,5294073,5294273,9072
13,31,S102,4,,,,10318
13,32,S102,7,,,,9378
13,33,S201,8,,,,8559
13,34,S202,7,4,554541,554741,5845
13,35,S201,6,,,,8761
13,36,S202,7,5,837819,838019,13891
13,37,S101,5,2,943527,943727,7608
13,38,S201,4,,,,13071
13,39,S202,7,3,1194626,1194826,8580
13,40,S101,8,8,1428218,1428418,8037
13,41,S101,7,5,1540929,1541129,7495
13,42,S102,7,,,,8105
13,43,S102,6,,,,9887
13,44,S202,4,2,1968431,1968631,7582
13,45,S201,5,,,,8103
13,46,S102,6,,,,8682
13,47,S103,,,,,
13,48,S101,8,7,2579672,2579872,8551
13,49,S101,7,1,2670207,2670407,9761
13,50,S201,7,,,,8842
13,51,S101,6,6,3066697,3066897,10196
13,52,S202,5,1,3124886,3125086,12449
13,53,S102,5,,,,11819
13,54,S201,6,,,,10575
13,55,S202,8,1,3510204,3510404,9153
13,56,S102,7,,,,12983
13,57,S201,7,,,,9055
13,58,S101,4,4,4039246,4039446,11360
13,59,S201,8,,,,11582
13,60,S102,5,,,,9222
13,61,S101,5,2,206404,206604,11669
13,62,S102,7,,,,9710
13,63,S101,8,8,610063,610263,13842
13,64,S202,7,1,671921,672121,9877
13,65,S101,5,4,858661,858861,18955
13,66,S101,8,8,1078581,1078781,8631
13,67,S102,7,,,,9206
13,68,S202,7,3,1325345,1325545,12952
13,69,S101,4,4,1506583,1506783,8211
13,70,S202,7,5,1619460,1619660,7990
13,71,S202,8,4,1747844,1748044,22521
13,72,S202,6,5,1933251,1933451,9394
13,73,S101,6,6,2096815,2097015,8006
13,74,S101,6,6,2243539,2243739,9629
13,75,S101,6,3,2329407,2329607,10392
13,76,S101,8,1,2450121,2450321,8091
13,77,S202,7,6,2696051,2696251,9800
13,78,S201,8,,,,6802
13,79,S202,5,3,2953152,2953352,8469
13,80,S101,6,6,3129888,3130088,11605
13,81,S202,4,1,3189412,3189612,20449
13,82,S101,6,1,3301623,3301823,7094
13,83,S101,8,1,3447347,3447547,6044
13,84,S102,6,,,,8549
13,85,S101,4,2,3781812,3782012,7577
13,86,S202,8,6,3956381,3956581,8911
13,87,S201,5,,,,5046
13,88,S101,7,6,4225153,4225353,10635
13,89,S201,7,,,,11125
13,90,S102,5,,,,15513
14,1,S103,,,,,
14,2,S102,8,,,,17848
14,3,S102,6,,,,16845
14,4,S101,6,6,1790189,1790389,11557
14,5,S102,5,,,,14723
14,6,S201,6,,,,26500
14,7,S101,5,2,2149830,2150030,20191
14,8,S202,7,1,2280382,2280582,19504
14,9,S102,4,,,,15786
14,10,S102,6,,,,18071
14,11,S102,7,,,,17631
14,12,S102,8,,,,26427
14,13,S101,6,6,3171566,3171766,14999
14,14,S101,6,6,3325460,3325660,13140
14,15,S201,5,,,,17047
14,16,S101,8,8,3628746,3628946,11520
14,17,S101,5,1,3688269,3688469,13726
14,18,S101,8,6,3897351,3897551,11136
14,19,S102,7,,,,21221
14,20,S101,8,7,4263662,4263862,16736
14,21,S102,4,,,,22017
14,22,S202,7,5,4551442,4551642,16765
14,23,S202,6,2,4660319,4660519,20693
14,24,S102,6,,,,13256
14,25,S102,5,,,,19880
14,26,S101,8,2,5097491,5097691,14166
14,27,S102,8,,,,14602
14,28,S102,6,,,,17255
14,29,S201,5,,,,13149
14,30,S201,4,,,,14651
14,31,S102,5,,,,22759
14,32,S102,7,,,,13485
14,33,S101,8,2,456002,456202,14752
14,34,S102,5,,,,16673
14,35,S201,6,,,,24848
14,36,S101,6,5,966703,966903,16120
14,37,S202,8,4,1107258,1107458,27218
14,38,S102,5,,,,14628
14,39,S101,8,8,1498746,1498946,22100
14,40,S101,6,3,1597118,1597318,15167
14,41,S102,4,,,,27716
14,42,S102,7,,,,17603
14,43,S102,5,,,,12364
14,44,S102,4,,,,9964
14,45,S101,8,5,2344912,2345112,17618
14,46,S101,6,2,2486968,2487168,15188
14,47,S102,5,,,,11160
14,48,S202,5,1,2762410,2762610,13698
14,49,S202,8,4,2924640,2924840,20806
14,50,S102,6,,,,25376
14,51,S101,5,2,3229760,3229960,16787
14,52,S101,4,1,3356810,3357010,14697
14,53,S101,6,1,3481860,3482060,19586
14,54,S101,6,1,3640089,3640289,12585
14,55,S201,7,,,,28380
14,56,S202,4,2,3968551,3968751,12934
14,57,S102,7,,,,13419
14,58,S103,,,,,
14,59,S202,8,1,4418895,4419095,18647
14,60,S102,6,,,,16575
14,61,S101,6,1,211072,211272,9758
14,62,S101,5,4,401981,402181,20525
14,63,S102,5,,,,11323
14,64,S201,7,,,,20434
14,65,S202,4,4,857493,857693,17003
14,66,S102,8,,,,14361
14,67,S101,6,5,1142272,1142472,18302
14,68,S202,6,4,1284995,1285195,13122
14,69,S202,6,5,1432386,1432586,11592
14,70,S202,4,2,1521588,1521788,18600
14,71,S102,6,,,,19418
14,72,S101,8,2,1790027,1790227,16127
14,73,S101,8,7,2043960,2044160,22418
14,74,S102,8,,,,14044
14,75,S101,6,2,2343578,2343778,18799
14,76,S102,6,,,,20328
14,77,S101,4,3,2674208,2674408,17613
14,78,S102,4,,,,25103
14,79,S201,5,,,,15564
14,80,S101,6,1,3030682,3030882,16019
14,81,S201,5,,,,15965
14,82,S101,8,2,3321463,3321663,16418
14,83,S102,6,,,,15956
14,84,S101,8,6,3716118,3716318,12641
14,85,S102,8,,,,18590
14,86,S201,5,,,,20199
14,87,S101,4,3,4165128,4165328,13884
14,88,S202,7,1,4260999,4261199,14728
14,89,S102,5,,,,14809
14,90,S102,4,,,,18565
15,1,S102,6,,,,14851
15,2,S102,8,,,,15740
15,3,S101,6,5,707602,707802,10818
15,4,S102,7,,,,11624
15,5,S101,4,1,964703,964903,8776
15,6,S101,8,8,1202797,1202997,10707
15,7,S102,4,,,,9653
15,8,S201,8,,,,14110
15,9,S102,4,,,,9485
15,10,S102,8,,,,11870
15,11,S201,8,,,,20408
15,12,S101,5,5,2088146,2088346,13537
15,13,S101,5,3,2178015,2178215,12939
15,14,S101,7,3,2315402,2315602,24555
15,15,S202,8,2,2478633,2478833,16895
15,16,S101,4,2,2644032,2644232,9114
15,17,S102,8,,,,10553
15,18,S101,5,3,2955154,2955354,20645
15,19,S101,4,2,3086039,3086239,11036
15,20,S102,7,,,,17595
15,21,S102,4,,,,8745
15,22,S102,8,,,,24935
15,23,S102,4,,,,19161
15,24,S102,6,,,,13301
15,25,S102,6,,,,18568
15,26,S202,8,6,4184138,4184338,22999
15,27,S101,7,3,4313189,4313389,8507
15,28,S102,5,,,,12103
15,29,S201,7,,,,11575
15,30,S101,4,4,4791378,4791578,11368
15,31,S102,7,,,,10085
15,32,S102,5,,,,10424
15,33,S101,6,5,410818,411018,15164
15,34,S102,5,,,,15941
15,35,S202,8,2,662584,662784,18555
15,36,S101,6,2,829650,829850,17449
15,37,S101,5,5,1048069,1048269,10774
15,38,S101,4,2,1120931,1121131,12283
15,39,S201,5,,,,24074
15,40,S102,7,,,,20115
15,41,S201,8,,,,20002
15,42,S101,4,3,1729171,1729371,12257
15,43,S101,5,5,1899905,1900105,8667
15,44,S102,5,,,,22509
15,45,S102,4,,,,18590
15,46,S101,6,4,2275219,2275419,14839
15,47,S101,8,1,2386263,2386463,9640
15,48,S103,,,,,
15,49,S101,5,1,2756242,2756442,19570
15,50,S101,6,5,2956988,2957188,9051
15,51,S101,6,4,3090541,3090741,14963
15,52,S101,6,1,3201584,3201784,12637
15,53,S101,5,5,3429341,3429541,11276
15,54,S102,7,,,,18632
15,55,S102,6,,,,12637
15,56,S103,,,,,
15,57,S102,4,,,,10810
15,58,S101,5,5,4173968,4174168,8400
15,59,S101,8,2,4244495,4244695,25565
15,60,S102,7,,,,22105
15,61,S102,8,,,,13911
15,62,S102,6,,,,16589
15,63,S201,6,,,,10832
15,64,S102,5,,,,9620
15,65,S101,5,2,658082,658282,11582
15,66,S201,8,,,,8917
15,67,S202,4,1,937359,937559,32208
15,68,S102,8,,,,24011
15,69,S102,4,,,,12822
15,70,S102,4,,,,17611
15,71,S101,8,3,1531926,1532126,13110
15,72,S101,4,2,1697825,1698025,7638
15,73,S101,7,3,1829877,1830077,9529
15,74,S102,4,,,,8841
15,75,S101,8,5,2139833,2140033,10125
15,76,S101,5,1,2260213,2260413,11746
15,77,S102,6,,,,15472
15,78,S102,7,,,,32435
15,79,S201,5,,,,14918
15,80,S102,4,,,,7536
15,81,S102,7,,,,8472
15,82,S102,6,,,,11205
15,83,S101,8,6,3356312,3356512,19447
15,84,S101,6,3,3500202,3500402,12291
15,85,S102,5,,,,24402
15,86,S102,5,,,,10243
15,87,S101,7,2,3920701,3920901,10267
15,88,S102,6,,,,16452
15,89,S102,5,,,,17505
15,90,S101,8,8,4485757,4485957,9638
16,1,S103,,,,,
16,2,S102,7,,,,25854
16,3,S202,6,5,2090945,2091145,12363
16,4,S102,6,,,,9577
16,5,S202,4,4,2377392,2377592,7928
16,6,S101,6,5,2471429,2471629,12040
16,7,S102,5,,,,11501
16,8,S202,8,1,2701686,2701886,30783
16,9,S202,7,2,2895263,2895463,22713
16,10,S102,8,,,,21134
16,11,S101,6,2,3240232,3240432,23538
16,12,S202,7,3,3416635,3416835,24322
16,13,S102,5,,,,19217
16,14,S102,8,,,,21057
16,15,S202,5,2,3892990,3893190,13918
16,16,S202,8,3,4027043,4027243,20535
16,17,S101,4,2,4181938,4182138,27030
16,18,S103,,,,,
16,19,S102,6,,,,12792
16,20,S202,6,2,4635950,4636150,11349
16,21,S202,8,7,4838530,4838730,31356
16,22,S103,,,,,
16,23,S102,4,,,,21266
16,24,S101,7,1,5215846,5216046,17816
16,25,S101,4,2,5400586,5400786,14405
16,26,S102,5,,,,10409
16,27,S101,4,4,5708374,5708574,13694
16,28,S103,,,,,
16,29,S101,4,2,5963641,5963841,26164
16,30,S102,7,,,,16591
16,31,S102,6,,,,9777
16,32,S202,4,2,208738,208938,10204
16,33,S102,7,,,,12868
16,34,S102,4,,,,18618
16,35,S101,8,8,710437,710637,15357
16,36,S102,6,,,,14613
16,37,S102,6,,,,15662
16,38,S202,8,3,1109761,1109961,11233
16,39,S101,5,5,1317843,1318043,13686
16,40,S102,4,,,,10592
16,41,S102,6,,,,6511
16,42,S101,4,2,1659812,1660012,14592
16,43,S201,6,,,,13720
16,44,S102,5,,,,16884
16,45,S201,6,,,,12556
16,46,S202,7,2,2192855,2193055,16250
16,47,S101,6,3,2357587,2357787,16998
16,48,S202,6,1,2484971,2485171,16829
16,49,S102,7,,,,19713
16,50,S102,8,,,,12563
16,51,S102,6,,,,24745
16,52,S101,8,8,3256776,3256976,17399
16,53,S103,,,,,
16,54,S102,6,,,,22757
16,55,S102,8,,,,11484
16,56,S101,6,2,3812828,3813028,12498
16,57,S102,4,,,,22746
16,58,S201,4,,,,17698
16,59,S202,8,2,4206651,4206851,15355
16,60,S202,6,2,4370549,4370749,17418
16,61,S102,6,,,,10924
16,62,S202,7,4,349961,350161,10282
16,63,S202,7,3,480512,480712,10383
16,64,S201,4,,,,17751
16,65,S102,5,,,,14342
16,66,S102,5,,,,13069
16,67,S202,7,3,1011555,1011755,14424
16,68,S103,,,,,
16,69,S101,6,6,1359526,1359726,15814
16,70,S202,5,4,1465735,1465935,18174
16,71,S101,5,4,1589951,1590151,21801
16,72,S102,8,,,,17618
16,73,S202,6,2,1892403,1892603,21110
16,74,S202,4,1,2019454,2019654,14772
16,75,S101,6,5,2182851,2183051,14769
16,76,S101,8,8,2398603,2398803,8775
16,77,S202,4,4,2517650,2517850,12926
16,78,S102,7,,,,14051
16,79,S102,5,,,,17437
16,80,S102,6,,,,11329
16,81,S102,8,,,,14597
16,82,S202,5,1,3200420,3200620,20368
16,83,S202,6,5,3383492,3383692,12300
16,84,S202,6,1,3459189,3459389,16091
16,85,S102,8,,,,14612
16,86,S102,4,,,,9564
16,87,S102,5,,,,32350
16,88,S202,5,4,4096274,4096474,17398
16,89,S102,5,,,,12888
16,90,S102,5,,,,11193
17,1,S101,8,1,292105,292305,397604
17,2,S101,4,4,508068,508268,11204
17,3,S102,8,,,,14959
17,4,S102,6,,,,25609
17,5,S202,8,7,998428,998628,16625
17,6,S102,5,,,,17114
17,7,S202,8,6,1290877,1291077,13912
17,8,S102,6,,,,12182
17,9,S202,5,4,1575989,1576189,30378
17,10,S102,5,,,,13177
17,11,S102,8,,,,17975
17,12,S101,7,3,2020998,2021198,16258
17,13,S102,5,,,,15073
17,14,S101,6,5,2357965,2358165,13701
17,15,S102,5,,,,14378
17,16,S202,7,2,2606730,2606930,26092
17,17,S101,4,4,2815479,2815679,17625
17,18,S102,6,,,,16789
17,19,S102,8,,,,12960
17,20,S102,7,,,,17364
17,21,S101,6,6,3477407,3477607,14299
17,22,S101,7,7,3644473,3644673,12402
17,23,S102,4,,,,11924
17,24,S101,6,1,3827045,3827245,13559
17,25,S102,8,,,,17544
17,26,S102,6,,,,12549
17,27,S202,5,2,4329243,4329443,15673
17,28,S102,5,,,,12830
17,29,S101,6,1,4574173,4574373,13145
17,30,S102,8,,,,13785
17,31,S202,7,5,132542,132742,19372
17,32,S202,7,4,272097,272297,21043
17,33,S102,5,,,,14306
17,34,S202,5,2,537868,538068,14162
17,35,S102,6,,,,11145
17,36,S102,5,,,,11446
17,37,S101,6,6,1020225,1020425,12780
17,38,S102,4,,,,12929
17,39,S101,5,2,1218304,1218504,14919
17,40,S101,7,2,1357692,1357892,22611
17,41,S102,4,,,,13884
17,42,S102,6,,,,10795
17,43,S202,4,1,1792530,1792730,20475
17,44,S102,4,,,,22803
17,45,S102,4,,,,13910
17,46,S102,8,,,,16441
17,47,S101,4,1,2345582,2345782,15644
17,48,S101,7,1,2471465,2471665,13217
17,49,S201,5,,,,15034
17,50,S102,7,,,,17509
17,51,S101,8,6,3000007,3000207,17975
17,52,S102,4,,,,14395
17,53,S101,5,5,3315298,3315498,12484
17,54,S101,5,2,3389827,3390027,11450
17,55,S102,6,,,,16790
17,56,S102,6,,,,15513
17,57,S101,4,1,3821164,3821364,13948
17,58,S102,8,,,,14716
17,59,S101,4,2,4141290,4141490,15428
17,60,S102,4,,,,12909
17,61,S101,6,4,85356,85556,14308
17,62,S102,7,,,,13214
17,63,S102,7,,,,18728
17,64,S102,6,,,,12726
17,65,S102,8,,,,18666
17,66,S101,6,6,961202,961402,11863
17,67,S101,7,6,1091920,1092120,12302
17,68,S101,8,1,1186124,1186324,15539
17,69,S102,4,,,,20223
17,70,S101,4,4,1561606,1561806,10145
17,71,S101,5,4,1662145,1662345,10644
17,72,S201,5,,,,19936
17,73,S102,6,,,,14285
17,74,S102,6,,,,23678
17,75,S101,7,1,2196023,2196223,15966
17,76,S201,5,,,,14956
17,77,S102,7,,,,17444
17,78,S201,7,,,,16545
17,79,S102,6,,,,18403
17,80,S102,8,,,,18834
17,81,S102,4,,,,13936
17,82,S201,6,,,,20297
17,83,S102,5,,,,13434
17,84,S102,4,,,,14838
17,85,S101,8,7,3762474,3762674,15088
17,86,S101,6,3,3887857,3888057,15957
17,87,S102,4,,,,12937
17,88,S102,7,,,,12537
17,89,S202,7,6,4373549,4373749,32015
17,90,S103,,,,,
18,1,S103,,,,,
18,2,S102,6,,,,22678
18,3,S101,4,2,889340,889540,15555
18,4,S102,4,,,,15272
18,5,S201,5,,,,16052
18,6,S102,7,,,,18654
18,7,S101,6,6,1510751,1510951,15544
18,8,S102,6,,,,11910
18,9,S201,5,,,,20350
18,10,S201,6,,,,15330
18,11,S201,7,,,,19721
18,12,S101,7,2,2155005,2155205,13048
18,13,S102,7,,,,13919
18,14,S101,7,5,2530320,2530520,13641
18,15,S101,7,6,2710891,2711091,11773
18,16,S102,7,,,,14942
18,17,S101,7,7,3077202,3077402,12864
18,18,S101,7,4,3180576,3180776,12464
18,19,S101,6,6,3393993,3394193,11837
18,20,S101,8,2,3468022,3468222,14767
18,21,S102,4,,,,14198
18,22,S101,8,1,3760138,3760338,13352
18,23,S101,5,3,3968886,3969086,13081
18,24,S101,8,6,4148957,4149157,12602
18,25,S202,6,2,4271839,4272039,15486
18,26,S101,6,6,4484256,4484456,10335
18,27,S201,4,,,,10736
18,28,S201,5,,,,15779
18,29,S102,6,,,,13825
18,30,S201,4,,,,18414
18,31,S102,8,,,,14587
18,32,S201,7,,,,15085
18,33,S102,5,,,,21234
18,34,S101,5,1,542370,542570,12486
18,35,S201,5,,,,13376
18,36,S201,4,,,,17909
18,37,S201,4,,,,14255
18,38,S101,6,4,1056906,1057106,18447
18,39,S101,6,6,1262153,1262353,11338
18,40,S201,6,,,,13635
18,41,S102,6,,,,33233
18,42,S101,8,8,1746177,1746377,12257
18,43,S101,8,5,1863057,1863257,14214
18,44,S201,8,,,,14648
18,45,S101,5,3,2179015,2179215,14576
18,46,S201,5,,,,22909
18,47,S101,6,3,2447120,2447320,20829
18,48,S101,4,4,2640696,2640896,12328
18,49,S102,4,,,,17137
18,50,S102,7,,,,26347
18,51,S102,7,,,,16447
18,52,S201,6,,,,14390
18,53,S201,7,,,,26350
18,54,S102,6,,,,14207
18,55,S201,8,,,,14802
18,56,S201,6,,,,14321
18,57,S201,8,,,,16436
18,58,S101,5,4,4130283,4130483,15650
18,59,S101,6,3,4256166,4256366,14894
18,60,S101,7,4,4424066,4424266,13935
18,61,S102,4,,,,16727
18,62,S102,5,,,,18728
18,63,S201,8,,,,22192
18,64,S101,8,4,546705,546905,16784
18,65,S101,4,4,750452,750652,12291
18,66,S101,4,2,824814,825014,15025
18,67,S201,8,,,,13506
18,68,S101,4,3,1126433,1126633,14186
18,69,S102,8,,,,13500
18,70,S201,6,,,,11708
18,71,S201,8,,,,10716
18,72,S101,4,2,1708829,1709029,13264
18,73,S101,5,3,1846550,1846750,12679
18,74,S101,4,2,1969599,1969799,10907
18,75,S101,8,5,2133330,2133530,12593
18,76,S102,7,,,,11567
18,77,S201,7,,,,13303
18,78,S201,7,,,,12812
18,79,S102,5,,,,12972
18,80,S101,5,5,2929144,2929344,12560
18,81,S101,5,5,3066198,3066398,32349
18,82,S202,4,3,3174907,3175107,19713
18,83,S101,5,4,3300623,3300823,13190
18,84,S101,8,6,3466689,3466889,10621
18,85,S101,4,3,3601742,3601942,13097
18,86,S101,6,2,3710952,3711152,10042
18,87,S201,7,,,,25454
18,88,S101,8,3,4033745,4033945,10790
18,89,S202,8,1,4183138,4183338,15849
18,90,S101,6,3,4375880,4376080,11645
19,1,S101,4,4,425130,425330,29935
19,2,S101,8,3,531338,531538,15755
19,3,S102,8,,,,20233
19,4,S201,7,,,,13080
19,5,S201,5,,,,15906
19,6,S101,8,3,1171424,1171624,23823
19,7,S102,6,,,,21250
19,8,S102,5,,,,20141
19,9,S102,6,,,,30530
19,10,S102,4,,,,24005
19,11,S102,8,,,,15662
19,12,S102,6,,,,13892
19,13,S201,8,,,,26129
19,14,S102,5,,,,20595
19,15,S101,4,3,2626830,2627030,26796
19,16,S101,6,1,2735706,2735906,29716
19,17,S102,7,,,,20427
19,18,S102,4,,,,20229
19,19,S102,4,,,,22762
19,20,S102,5,,,,17270
19,21,S102,8,,,,14801
19,22,S101,8,5,3722094,3722294,18198
19,23,S201,6,,,,17768
19,24,S101,6,2,4003038,4003238,17289
19,25,S101,6,1,4144928,4145128,17380
19,26,S102,8,,,,14265
19,27,S201,6,,,,18478
19,28,S102,7,,,,21256
19,29,S101,4,2,4809689,4809889,16540
19,30,S102,7,,,,14659
19,31,S102,6,,,,18110
19,32,S101,7,1,281433,281633,15528
19,33,S102,5,,,,23130
19,34,S101,6,4,640241,640441,17547
19,35,S101,4,1,754120,754320,19864
19,36,S102,7,,,,13204
19,37,S202,4,1,1050736,1050936,20819
19,38,S102,7,,,,12126
19,39,S202,6,3,1357024,1357224,19309
19,40,S101,8,6,1539095,1539295,17812
19,41,S102,8,,,,27656
19,42,S101,5,1,1848050,1848250,14280
19,43,S202,8,2,2001111,2001311,20579
19,44,S101,4,4,2218696,2218896,15819
19,45,S102,8,,,,11643
19,46,S101,6,5,2517981,2518181,16603
19,47,S102,4,,,,19599
19,48,S102,6,,,,15916
19,49,S102,5,,,,13416
19,50,S103,,,,,
19,51,S101,4,4,3239265,3239465,11926
19,52,S101,4,3,3327466,3327666,11584
19,53,S102,7,,,,13903
19,54,S102,8,,,,10446
19,55,S101,7,3,3793983,3794183,18255
19,56,S201,8,,,,22793
19,57,S202,6,5,4164962,4165162,12347
19,58,S101,5,3,4269337,4269537,18243
19,59,S202,5,2,4398054,4398254,14209
19,60,S102,4,,,,17860
19,61,S102,5,,,,21433
19,62,S102,6,,,,15434
19,63,S101,7,7,543870,544070,20485
19,64,S202,6,1,612230,612430,14526
19,65,S202,5,2,761289,761489,20975
19,66,S102,6,,,,15566
19,67,S202,4,1,1028561,1028761,15077
19,68,S102,7,,,,13824
19,69,S102,8,,,,21258
19,70,S202,6,3,1519254,1519454,16226
19,71,S102,4,,,,11638
19,72,S101,8,5,1806200,1806400,12757
19,73,S102,4,,,,17987
19,74,S201,8,,,,12284
19,75,S101,4,3,2247207,2247407,16181
19,76,S102,6,,,,19355
19,77,S201,8,,,,17282
19,78,S202,4,2,2683879,2684079,29471
19,79,S101,6,1,2791088,2791288,7551
19,80,S102,7,,,,15633
19,81,S101,6,6,3196915,3197115,16749
19,82,S201,7,,,,11017
19,83,S102,7,,,,16006
19,84,S102,7,,,,21990
19,85,S101,6,1,3751300,3751500,18367
19,86,S102,8,,,,20017
19,87,S201,7,,,,18798
19,88,S102,5,,,,15795
19,89,S201,8,,,,13866
19,90,S202,7,3,4580293,4580493,25631
20,1,S101,7,7,178511,178711,17112
20,2,S201,6,,,,13692
20,3,S102,4,,,,22664
20,4,S101,4,4,572833,573033,9888
20,5,S102,6,,,,12197
20,6,S202,5,3,809926,810126,11609
20,7,S101,4,4,961653,961853,8005
20,8,S202,8,1,1017675,1017875,11511
20,9,S202,7,2,1192077,1192277,15201
20,10,S201,6,,,,8740
20,11,S102,4,,,,12295
20,12,S102,7,,,,10109
20,13,S202,8,3,1770305,1770505,9691
20,14,S102,8,,,,9850
20,15,S102,5,,,,8554
20,16,S102,8,,,,9317
20,17,S202,8,2,2400720,2400920,7812
20,18,S102,6,,,,8206
20,19,S202,4,3,2718178,2718378,8335
20,20,S101,4,3,2818551,2818751,12065
20,21,S102,6,,,,8682
20,22,S102,5,,,,9192
20,23,S202,7,1,3193699,3193899,8727
20,24,S102,7,,,,9003
20,25,S101,6,6,3589521,3589721,12468
20,26,S202,7,5,3706568,3706768,8833
20,27,S202,6,1,3793268,3793468,9823
20,28,S202,6,2,3937492,3937692,9176
20,29,S101,4,2,4067043,4067243,9990
20,30,S102,8,,,,9573
20,31,S102,8,,,,9974
20,32,S102,7,,,,12039
20,33,S101,6,3,422322,422522,16185
20,34,S102,5,,,,12716
20,35,S202,6,2,700265,700465,10430
20,36,S102,5,,,,8881
20,37,S102,4,,,,9305
20,38,S201,6,,,,11479
20,39,S102,6,,,,9494
20,40,S101,4,4,1411712,1411912,12614
20,41,S202,7,5,1528925,1529125,10415
20,42,S102,6,,,,10551
20,43,S202,6,5,1822874,1823074,9149
20,44,S102,6,,,,8858
20,45,S202,7,1,2042961,2043161,10486
20,46,S102,4,,,,9813
20,47,S102,6,,,,8444
20,48,S202,6,2,2469129,2469329,9051
20,49,S102,6,,,,8758
20,50,S202,8,8,2850613,2850813,9516
20,51,S101,4,4,2952153,2952353,8072
20,52,S202,7,5,3064864,3065064,9575
20,53,S202,7,2,3166237,3166437,9184
20,54,S102,6,,,,9361
20,55,S102,8,,,,8969
20,56,S102,4,,,,9391
20,57,S202,6,1,3739463,3739663,8677
20,58,S102,7,,,,10882
20,59,S102,7,,,,7948
20,60,S102,6,,,,9536
20,61,S102,5,,,,10013
20,62,S102,4,,,,8942
20,63,S102,7,,,,8809
20,64,S202,4,3,495018,495218,9400
20,65,S202,7,3,596224,596424,9817
20,66,S101,7,7,816811,817011,9261
20,67,S102,8,,,,10164
20,68,S202,6,3,1079415,1079615,9577
20,69,S202,7,7,1285663,1285863,11749
20,70,S101,4,4,1389203,1389403,13592
20,71,S202,8,2,1464900,1465100,10954
20,72,S202,4,1,1610124,1610324,11227
20,73,S201,6,,,,11651
20,74,S102,5,,,,11979
20,75,S101,5,3,2009614,2009814,9164
20,76,S101,5,2,2129162,2129362,11416
20,77,S102,7,,,,11505
20,78,S102,8,,,,10068
20,79,S201,7,,,,11331
20,80,S201,4,,,,9823
20,81,S201,8,,,,10461
20,82,S201,5,,,,10190
20,83,S101,4,4,3177408,3177608,11771
20,84,S202,7,4,3279615,3279815,12807
20,85,S202,5,3,3412501,3412701,11969
20,86,S101,5,2,3516208,3516408,19492
20,87,S201,6,,,,10047
20,88,S202,7,4,3818994,3819194,8670
20,89,S102,8,,,,9670
20,90,S201,7,,,,10627
21,1,S102,8,,,,17378
21,2,S101,6,2,276432,276632,16666
21,3,S102,5,,,,13018
21,4,S102,4,,,,13917
21,5,S101,6,6,770293,770493,11735
21,6,S201,5,,,,15492
21,7,S102,6,,,,33361
21,8,S101,8,2,1137771,1137971,15525
21,9,S101,5,4,1348687,1348887,18169
21,10,S202,7,1,1448893,1449093,19749
21,11,S102,6,,,,30567
21,12,S201,7,,,,21084
21,13,S101,6,4,1970265,1970465,19671
21,14,S201,4,,,,24144
21,15,S102,4,,,,16050
21,16,S101,7,6,2399434,2399634,15479
21,17,S102,6,,,,30704
21,18,S201,7,,,,26505
21,19,S103,,,,,
21,20,S101,6,1,2977995,2978195,18129
21,21,S101,5,5,3211254,3211454,18272
21,22,S103,,,,,
21,23,S102,6,,,,15495
21,24,S101,5,1,3596906,3597106,16056
21,25,S102,4,,,,21001
21,26,S101,5,5,3945376,3945576,14459
21,27,S202,7,6,11,211,26920
21,28,S103,,,,,
21,29,S102,6,,,,1616
21,30,S101,6,5,4531441,4531641,17698
21,31,S202,7,5,129207,129407,17796
21,32,S101,7,6,281267,281467,9716
21,33,S102,6,,,,18116
21,34,S101,8,1,529698,529898,11777
21,35,S101,5,5,784965,785165,19537
21,36,S101,7,5,909181,909381,9054
21,37,S201,4,,,,13312
21,38,S102,5,,,,18053
21,39,S102,5,,,,10989
21,40,S102,4,,,,14849
21,41,S102,8,,,,30416
21,42,S102,4,,,,25186
21,43,S102,6,,,,19361
21,44,S102,5,,,,15767
21,45,S102,7,,,,11680
21,46,S202,8,5,2375425,2375625,9756
21,47,S202,5,3,2505309,2505509,14633
21,48,S101,8,2,2611851,2612051,14280
21,49,S201,4,,,,17055
21,50,S102,8,,,,17091
21,51,S102,4,,,,18634
21,52,S201,6,,,,20118
21,53,S101,5,5,3417669,3417869,16907
21,54,S102,6,,,,15256
21,55,S102,8,,,,17197
21,56,S101,5,3,3849005,3849205,15290
21,57,S102,7,,,,10255
21,58,S101,7,6,4194474,4194674,15516
21,59,S101,6,6,4382715,4382915,11194
21,60,S101,5,1,4441905,4442105,14969
21,61,S101,5,4,99529,99729,13603
21,62,S101,7,5,251755,251955,29461
21,63,S202,4,3,405649,405849,11297
21,64,S102,8,,,,19571
21,65,S101,7,3,695263,695463,15012
21,66,S201,4,,,,14551
21,67,S202,4,3,969538,969738,19005
21,68,S202,5,2,1066409,1066609,17908
21,69,S102,6,,,,18868
21,70,S102,4,,,,17775
21,71,S202,7,4,1504248,1504448,14090
21,72,S102,6,,,,12159
21,73,S101,4,4,1823374,1823574,14532
21,74,S102,4,,,,13448
21,75,S103,,,,,
21,76,S201,5,,,,7422
21,77,S101,4,2,2330741,2330941,13118
21,78,S102,4,,,,13376
21,79,S101,5,1,2563666,2563866,14503
21,80,S201,6,,,,19990
21,81,S102,4,,,,17179
21,82,S201,7,,,,17516
21,83,S201,4,,,,13836
21,84,S201,6,,,,9829
21,85,S102,8,,,,17034
21,86,S102,6,,,,14414
21,87,S101,4,3,3723789,3723989,18463
21,88,S102,8,,,,14514
21,89,S201,6,,,,16629
21,90,S102,5,,,,14999
22,1,S103,,,,,
22,2,S103,,,,,
22,3,S202,5,4,444331,444531,13767
22,4,S202,7,7,626403,626603,7127
22,5,S103,,,,,
22,6,S102,7,,,,16809
22,7,S102,7,,,,11875
22,8,S102,6,,,,10101
22,9,S102,8,,,,16569
22,10,S202,7,5,1580112,1580312,30226
22,11,S102,8,,,,7802
22,12,S202,5,3,1891068,1891268,8511
22,13,S202,5,3,2005613,2005813,9118
22,14,S102,4,,,,9144
22,15,S102,8,,,,12448
22,16,S202,4,4,2453457,2453657,5845
22,17,S202,6,6,2579506,2579706,6158
22,18,S102,4,,,,12213
22,19,S202,5,2,2752074,2752274,8103
22,20,S102,4,,,,8640
22,21,S202,4,3,2999338,2999538,7794
22,22,S202,5,4,3113050,3113250,6993
22,23,S202,4,4,3245936,3246136,5335
22,24,S102,5,,,,15515
22,25,S102,8,,,,13598
22,26,S102,8,,,,12875
22,27,S202,5,1,3781480,3781680,14023
22,28,S202,8,4,3944044,3944244,7931
22,29,S102,6,,,,10886
22,30,S202,6,6,4298184,4298384,6267
22,31,S102,6,,,,11302
22,32,S202,4,4,265427,265627,14356
22,33,S202,6,1,309445,309645,7919
22,34,S102,8,,,,14243
22,35,S202,6,6,709436,709636,6449
22,36,S102,5,,,,8896
22,37,S202,4,1,878836,879036,11561
22,38,S202,6,6,1073079,1073279,5718
22,39,S102,5,,,,12843
22,40,S102,5,,,,8217
22,41,S202,4,4,1440891,1441091,9466
22,42,S202,8,5,1536595,1536795,17646
22,43,S102,8,,,,11096
22,44,S202,8,4,1866558,1866758,11918
22,45,S202,6,3,2012783,2012983,9111
22,46,S102,7,,,,13700
22,47,S102,7,,,,8890
22,48,S102,4,,,,13636
22,49,S102,6,,,,8432
22,50,S102,5,,,,11359
22,51,S102,4,,,,13604
22,52,S103,,,,,
22,53,S102,4,,,,8292
22,54,S103,,,,,
22,55,S202,6,5,3478194,3478394,8958
22,56,S202,4,4,3613080,3613280,5940
22,57,S202,5,5,3724958,3725158,5211
22,58,S102,4,,,,7782
22,59,S103,,,,,
22,60,S103,,,,,
22,61,S202,6,4,82355,82555,8015
22,62,S202,8,1,168056,168256,7925
22,63,S202,5,4,367134,367334,9672
22,64,S201,5,,,,15839
22,65,S201,7,,,,14558
22,66,S102,8,,,,8285
22,67,S201,5,,,,16657
22,68,S102,4,,,,14297
22,69,S102,7,,,,7388
22,70,S201,7,,,,12438
22,71,S102,8,,,,10567
22,72,S101,5,2,1632633,1632833,13088
22,73,S102,5,,,,7022
22,74,S201,6,,,,10723
22,75,S201,4,,,,28613
22,76,S102,6,,,,13135
22,77,S201,5,,,,12676
22,78,S202,6,6,2500142,2500342,6152
22,79,S201,6,,,,21185
22,80,S101,7,2,2691384,2691584,17932
22,81,S202,8,6,2918807,2919007,7436
22,82,S202,4,4,3066198,3066398,7366
22,83,S201,7,,,,14427
22,84,S202,7,6,3322632,3322832,6638
22,85,S201,7,,,,29749
22,86,S202,6,6,3647594,3647794,6053
22,87,S201,8,,,,12608
22,88,S202,8,4,3886688,3886888,12181
22,89,S201,8,,,,12727
22,90,S202,8,6,4236993,4237193,7808
23,1,S103,,,,,
23,2,S201,8,,,,12103
23,3,S102,7,,,,20583
23,4,S102,6,,,,12381
23,5,S201,7,,,,9706
23,6,S201,8,,,,10032
23,7,S202,6,4,1045215,1045415,18187
23,8,S102,7,,,,17616
23,9,S202,5,2,1325659,1325859,10411
23,10,S102,7,,,,11428
23,11,S201,8,,,,13840
23,12,S201,7,,,,12157
23,13,S202,7,1,1901053,1901253,11181
23,14,S102,5,,,,9602
23,15,S102,5,,,,10399
23,16,S201,7,,,,10847
23,17,S201,7,,,,9603
23,18,S201,4,,,,10089
23,19,S102,5,,,,9829
23,20,S102,7,,,,13980
23,21,S101,5,4,3050339,3050539,10924
23,22,S202,7,5,3199898,3200098,8789
23,23,S202,6,4,3328949,3329149,13468
23,24,S102,4,,,,14758
23,25,S201,8,,,,9991
23,26,S202,5,3,3732108,3732308,8297
23,27,S201,8,,,,13165
23,28,S201,7,,,,10862
23,29,S202,7,5,4181785,4181985,12501
23,30,S102,5,,,,16473
23,31,S101,8,8,167346,167546,8949
23,32,S101,7,7,329076,329276,7214
23,33,S101,8,8,503312,503512,7708
23,34,S101,6,1,559000,559200,9941
23,35,S102,4,,,,9202
23,36,S202,4,2,841278,841478,10406
23,37,S102,6,,,,15659
23,38,S101,4,2,1098213,1098413,15173
23,39,S102,5,,,,11744
23,40,S101,4,3,1374155,1374355,15898
23,41,S201,7,,,,11324
23,42,S101,4,3,1646095,1646295,11415
23,43,S201,7,,,,10704
23,44,S202,7,3,1913034,1913234,15226
23,45,S101,7,2,2048587,2048787,9478
23,46,S102,6,,,,12127
23,47,S101,8,3,2375716,2375916,10829
23,48,S102,4,,,,12615
23,49,S101,8,7,2733191,2733391,8094
23,50,S102,5,,,,8630
23,51,S102,5,,,,12190
23,52,S202,7,3,3121344,3121544,10964
23,53,S201,8,,,,7719
23,54,S102,7,,,,11244
23,55,S201,8,,,,10139
23,56,S102,7,,,,10210
23,57,S202,8,2,3894315,3894515,10745
23,58,S102,5,,,,7896
23,59,S102,8,,,,12689
23,60,S102,4,,,,10078
23,61,S101,4,1,101696,101896,9182
23,62,S101,4,1,221243,221443,8470
23,63,S102,6,,,,9076
23,64,S102,4,,,,11572
23,65,S101,4,1,609563,609763,8847
23,66,S101,5,4,771293,771493,10473
23,67,S101,5,2,877835,878035,8515
23,68,S101,5,3,1025060,1025260,8071
23,69,S101,4,2,1143440,1143640,9168
23,70,S201,5,,,,8697
23,71,S101,5,2,1377699,1377899,8656
23,72,S101,6,2,1510918,1511118,8769
23,73,S201,5,,,,8158
23,74,S101,8,8,1877396,1877596,9183
23,75,S101,4,4,1996943,1997143,7029
23,76,S101,4,1,2051965,2052165,7364
23,77,S101,5,1,2169678,2169878,8088
23,78,S101,6,6,2392933,2393133,7424
23,79,S101,5,1,2448288,2448488,6707
23,80,S101,7,4,2622023,2622223,7939
23,81,S102,8,,,,10490
23,82,S101,5,3,2946151,2946351,9007
23,83,S101,4,4,3113717,3113917,7821
23,84,S102,4,,,,10845
23,85,S202,6,4,3333303,3333503,9430
23,86,S101,7,5,3477027,3477227,13690
23,87,S201,7,,,,10002
23,88,S202,5,3,3759805,3760005,15349
23,89,S101,4,1,3852841,3853041,9197
23,90,S101,7,6,4043250,4043450,10172
24,1,S101,4,4,120774,120974,17510
24,2,S101,4,4,248658,248858,18872
24,3,S101,8,8,434565,434765,8175
24,4,S101,4,4,553111,553311,8465
24,5,S101,7,7,714342,714542,8510
24,6,S102,8,,,,9433
24,7,S101,5,1,947267,947467,8789
24,8,S101,6,4,1123169,1123369,8902
24,9,S101,4,4,1290569,1290769,7562
24,10,S101,6,2,1374435,1374635,10762
24,11,S101,7,4,1538000,1538200,9436
24,12,S101,6,2,1671886,1672086,7920
24,13,S101,5,5,1880802,1881002,8142
24,14,S101,5,5,2013521,2013721,8033
24,15,S102,4,,,,8648
24,16,S102,8,,,,10050
24,17,S102,4,,,,11548
24,18,S102,4,,,,7863
24,19,S202,5,2,2619760,2619960,14492
24,20,S101,7,1,2726135,2726335,10854
24,21,S201,5,,,,12560
24,22,S202,8,4,3051097,3051297,13574
24,23,S201,4,,,,9256
24,24,S102,8,,,,14085
24,25,S202,5,3,3481100,3481300,15828
24,26,S101,7,7,3679678,3679878,9895
24,27,S102,6,,,,9639
24,28,S102,7,,,,9801
24,29,S101,5,3,4076668,4076868,15717
24,30,S201,6,,,,14425
24,31,S101,5,1,56678,56878,6301
24,32,S102,6,,,,10995
24,33,S101,7,2,351295,351495,11898
24,34,S202,7,3,530199,530399,8122
24,35,S102,7,,,,8112
24,36,S102,7,,,,9932
24,37,S202,7,5,1024560,1024760,9113
24,38,S202,6,4,1153945,1154145,9621
24,39,S101,7,3,1269490,1269690,8430
24,40,S202,6,5,1458898,1459098,5518
24,41,S102,7,,,,6719
24,42,S201,5,,,,13387
24,43,S101,4,2,1821375,1821575,13081
24,44,S202,6,5,1987273,1987473,15583
24,45,S101,5,2,2080477,2080677,9026
24,46,S101,5,1,2199857,2200057,9364
24,47,S102,6,,,,6246
24,48,S101,8,7,2563667,2563867,9983
24,49,S102,8,,,,7643
24,50,S102,5,,,,12203
24,51,S101,4,3,2995338,2995538,11213
24,52,S102,7,,,,8744
24,53,S101,5,5,3326802,3327002,7806
24,54,S102,8,,,,9243
24,55,S202,7,3,3587071,3587271,6854
24,56,S102,4,,,,9519
24,57,S101,5,3,3848341,3848541,20406
24,58,S102,4,,,,5642
24,59,S101,4,2,4094938,4095138,9399
24,60,S102,7,,,,6683
24,61,S101,5,5,124539,124739,6183
24,62,S101,8,3,207071,207271,10561
24,63,S101,5,1,356297,356497,8598
24,64,S201,7,,,,12001
24,65,S202,8,4,678257,678457,8231
24,66,S101,5,1,792469,792669,7408
24,67,S201,6,,,,9013
24,68,S102,8,,,,10806
24,69,S202,6,2,1245481,1245681,8590
24,70,S102,5,,,,12080
24,71,S202,5,2,1510919,1511119,11337
24,72,S101,4,1,1614126,1614326,8227
24,73,S201,5,,,,9558
24,74,S101,5,5,1924749,1924949,7562
24,75,S101,4,3,2008615,2008815,7718
24,76,S102,8,,,,12836
24,77,S201,8,,,,12627
24,78,S102,7,,,,15154
24,79,S101,5,3,2635696,2635896,12532
24,80,S202,8,1,2744405,2744605,9452
24,81,S101,6,5,2958990,2959190,7384
24,82,S202,6,2,3062531,3062731,7708
24,83,S202,7,3,3204754,3204954,15391
24,84,S101,4,3,3354646,3354846,6351
24,85,S201,7,,,,8238
24,86,S201,8,,,,14861
24,87,S102,4,,,,7609
24,88,S101,7,7,3971890,3972090,14254
24,89,S102,6,,,,6621
24,90,S102,8,,,,15470
25,1,S102,7,,,,12622
25,2,S103,,,,,
25,3,S202,8,3,372303,372503,16955
25,4,S202,6,5,566046,566246,14753
25,5,S101,7,2,658416,658616,9193
25,6,S202,8,5,862997,863197,11050
25,7,S202,4,2,980043,980243,14359
25,8,S101,7,5,1128768,1128968,7852
25,9,S101,5,2,1246981,1247181,12559
25,10,S101,8,1,1369863,1370063,13797
25,11,S102,4,,,,9865
25,12,S202,7,5,1727671,1727871,26669
25,13,S101,6,2,1846218,1846418,11105
25,14,S102,4,,,,17207
25,15,S102,6,,,,17618
25,16,S202,6,2,2279889,2280089,10976
25,17,S101,7,6,2467629,2467829,9891
25,18,S102,7,,,,11319
25,19,S101,6,1,2723564,2723764,31993
25,20,S102,7,,,,10292
25,21,S102,6,,,,9216
25,22,S102,7,,,,11152
25,23,S102,4,,,,22700
25,24,S101,4,3,3530549,3530749,13128
25,25,S102,7,,,,13310
25,26,S101,7,3,3819996,3820196,25016
25,27,S101,7,7,4074430,4074630,16238
25,28,S101,7,4,4181139,4181339,9569
25,29,S102,4,,,,20375
25,30,S202,6,3,4460082,4460282,21941
25,31,S102,8,,,,9710
25,32,S201,8,,,,8023
25,33,S101,8,3,425824,426024,10177
25,34,S102,8,,,,9752
25,35,S201,6,,,,11586
25,36,S202,6,5,940027,940227,15511
25,37,S101,8,6,1089919,1090119,7920
25,38,S102,5,,,,16309
25,39,S202,7,5,1391372,1391572,23255
25,40,S101,6,6,1582947,1583147,7349
25,41,S101,6,4,1680819,1681019,8153
25,42,S202,7,4,1827710,1827910,10128
25,43,S202,7,1,1929584,1929784,11639
25,44,S102,5,,,,17573
25,45,S201,6,,,,17496
25,46,S201,6,,,,9341
25,47,S102,4,,,,13836
25,48,S102,7,,,,25357
25,49,S101,4,1,2787256,2787456,10875
25,50,S202,8,2,2922642,2922842,22275
25,51,S201,8,,,,12971
25,52,S102,5,,,,8114
25,53,S101,5,3,3401831,3402031,9613
25,54,S201,8,,,,14339
25,55,S202,8,1,3670604,3670804,12551
25,56,S202,4,1,3831834,3832034,8909
25,57,S201,5,,,,21033
25,58,S202,7,6,4130452,4130652,11379
25,59,S101,4,3,4233659,4233859,18199
25,60,S102,7,,,,9210
25,61,S101,8,1,55845,56045,9911
25,62,S202,5,2,246920,247120,10856
25,63,S202,5,3,377972,378172,16976
25,64,S101,6,3,501020,501220,22293
25,65,S102,8,,,,10824
25,66,S201,5,,,,12853
25,67,S201,8,,,,18177
25,68,S202,7,2,1111261,1111461,10716
25,69,S102,5,,,,17157
25,70,S202,8,3,1412380,1412580,14375
25,71,S102,4,,,,10666
25,72,S201,8,,,,13903
25,73,S202,6,2,1844717,1844917,8290
25,74,S101,8,2,1973101,1973301,13798
25,75,S101,5,3,2168011,2168211,10101
25,76,S101,4,3,2302731,2302931,8877
25,77,S102,8,,,,9946
25,78,S202,6,3,2598848,2599048,18981
25,79,S201,8,,,,15100
25,80,S202,4,3,2901467,2901667,33786
25,81,S102,8,,,,22434
25,82,S101,7,4,3230597,3230797,13759
25,83,S202,8,6,3425507,3425707,13838
25,84,S101,6,6,3607913,3608113,9183
25,85,S201,8,,,,24653
25,86,S102,6,,,,10136
25,87,S101,7,3,4015240,4015440,18284
25,88,S202,8,5,4214652,4214852,17216
25,89,S102,7,,,,14602
25,90,S201,5,,,,18086
26,1,S202,8,6,166967,167167,16806
26,2,S102,5,,,,23976
26,3,S102,7,,,,16677
26,4,S102,5,,,,16071
26,5,S201,7,,,,32631
26,6,S102,4,,,,19716
26,7,S102,8,,,,27245
26,8,S201,4,,,,17653
26,9,S102,4,,,,14300
26,10,S103,,,,,
26,11,S101,7,2,1638715,1638915,16327
26,12,S101,7,5,1850465,1850665,26147
26,13,S202,7,3,2001025,2001225,31575
26,14,S202,4,2,2152918,2153118,22063
26,15,S101,7,1,2252791,2252991,12364
26,16,S101,8,7,2503056,2503256,19861
26,17,S103,,,,,
26,18,S101,8,4,2798340,2798540,12942
26,19,S201,5,,,,15690
26,20,S102,8,,,,14977
26,21,S201,4,,,,14042
26,22,S201,5,,,,22278
26,23,S103,,,,,
26,24,S101,4,4,3672685,3672885,9016
26,25,S102,6,,,,19364
26,26,S103,,,,,
26,27,S102,7,,,,14626
26,28,S103,,,,,
26,29,S202,8,4,4399472,4399672,9197
26,30,S102,5,,,,16344
26,31,S102,6,,,,11361
26,32,S101,4,1,245253,245453,19366
26,33,S102,8,,,,15696
26,34,S101,7,1,557710,557910,16252
26,35,S102,5,,,,12943
26,36,S101,5,5,940694,940894,12969
26,37,S101,4,3,1029896,1030096,12593
26,38,S101,8,2,1138606,1138806,15919
26,39,S101,5,4,1349856,1350056,17428
26,40,S201,7,,,,12634
26,41,S201,6,,,,18610
26,42,S101,8,7,1819875,1820075,22429
26,43,S101,4,4,1986608,1986808,12869
26,44,S201,7,,,,32917
26,45,S201,5,,,,12705
26,46,S101,8,1,2333578,2333778,13064
26,47,S101,6,3,2541994,2542194,20852
26,48,S102,7,,,,17202
26,49,S101,4,2,2857452,2857652,12329
26,50,S103,,,,,
26,51,S201,5,,,,14676
26,52,S101,8,7,3365153,3365353,10959
26,53,S201,6,,,,18512
26,54,S102,5,,,,23049
26,55,S101,7,6,3815164,3815364,23476
26,56,S201,4,,,,10834
26,57,S101,8,8,4142293,4142493,13675
26,58,S103,,,,,
26,59,S201,8,,,,12271
26,60,S201,8,,,,20338
26,61,S101,6,6,207803,208003,11288
26,62,S101,4,3,295338,295538,22509
26,63,S102,8,,,,19995
26,64,S202,5,3,615298,615498,23902
26,65,S102,8,,,,19498
26,66,S101,4,4,965936,966136,16934
26,67,S102,4,,,,13838
26,68,S101,4,2,1169183,1169383,18546
26,69,S102,5,,,,13864
26,70,S102,4,,,,12488
26,71,S102,7,,,,17174
26,72,S102,8,,,,24160
26,73,S101,7,1,1906475,1906675,14292
26,74,S202,4,3,2101885,2102085,22031
26,75,S101,6,3,2215930,2216130,15613
26,76,S101,4,2,2355985,2356185,19776
26,77,S103,,,,,
26,78,S101,7,4,2665441,2665641,11648
26,79,S101,5,5,2864019,2864219,12367
26,80,S101,8,6,2995238,2995438,13137
26,81,S101,7,1,3104448,3104648,12198
26,82,S102,5,,,,18337
26,83,S102,4,,,,13419
26,84,S101,6,1,3536118,3536318,12545
26,85,S102,6,,,,30604
26,86,S101,7,1,3856578,3856778,16481
26,87,S202,8,1,4025812,4026012,20619
26,88,S201,5,,,,20271
26,89,S101,4,2,4335267,4335467,17132
26,90,S102,6,,,,17075
27,1,S102,7,,,,17930
27,2,S102,4,,,,12071
27,3,S102,5,,,,12930
27,4,S102,5,,,,10555
27,5,S201,8,,,,11719
27,6,S102,7,,,,14281
27,7,S102,4,,,,10490
27,8,S102,8,,,,11172
27,9,S101,7,5,1301644,1301844,22800
27,10,S102,6,,,,12268
27,11,S102,6,,,,10802
27,12,S102,6,,,,14520
27,13,S102,7,,,,11120
27,14,S102,7,,,,13944
27,15,S102,4,,,,9365
27,16,S102,5,,,,10170
27,17,S101,6,1,2459102,2459302,12147
27,18,S101,5,3,2638172,2638372,12206
27,19,S101,7,6,2817410,2817610,12102
27,20,S101,6,6,3002150,3002350,11601
27,21,S101,6,2,3075845,3076045,11282
27,22,S102,5,,,,10734
27,23,S102,6,,,,15090
27,24,S101,5,5,3577044,3577244,13911
27,25,S101,5,5,3715265,3715465,10221
27,26,S102,4,,,,11712
27,27,S101,7,6,3966364,3966564,13389
27,28,S102,4,,,,11233
27,29,S202,4,2,4197456,4197656,11244
27,30,S102,5,,,,17185
27,31,S101,4,4,193066,193266,13844
27,32,S102,5,,,,11271
27,33,S201,8,,,,13529
27,34,S102,4,,,,11615
27,35,S101,4,2,688762,688962,13535
27,36,S102,7,,,,19303
27,37,S101,5,5,1047070,1047270,20041
27,38,S101,4,3,1143442,1143642,12976
27,39,S101,7,5,1295002,1295202,12685
27,40,S102,7,,,,12882
27,41,S101,5,1,1569610,1569810,14029
27,42,S101,6,4,1750682,1750882,11849
27,43,S102,5,,,,12075
27,44,S201,7,,,,17903
27,45,S101,6,4,2190022,2190222,12618
27,46,S102,8,,,,15144
27,47,S102,7,,,,15569
27,48,S201,8,,,,11571
27,49,S102,4,,,,12139
27,50,S102,4,,,,15800
27,51,S101,6,1,3057699,3057899,11792
27,52,S101,4,3,3236436,3236636,12104
27,53,S102,4,,,,12242
27,54,S101,8,8,3572069,3572269,9977
27,55,S101,5,5,3706455,3706655,9162
27,56,S102,5,,,,10133
27,57,S102,4,,,,12912
27,58,S102,4,,,,10454
27,59,S102,5,,,,15384
27,60,S101,6,1,4282016,4282216,12510
27,61,S102,7,,,,12652
27,62,S102,6,,,,11011
27,63,S102,8,,,,11033
27,64,S102,5,,,,12895
27,65,S101,8,6,772128,772328,10923
27,66,S102,7,,,,20482
27,67,S102,6,,,,10684
27,68,S101,7,2,1215970,1216170,13362
27,69,S101,6,1,1368030,1368230,10567
27,70,S101,8,4,1559773,1559973,14935
27,71,S102,4,,,,10957
27,72,S101,5,3,1848721,1848921,13465
27,73,S201,5,,,,10588
27,74,S101,8,1,2074810,2075010,9759
27,75,S101,6,4,2294063,2294263,12876
27,76,S101,6,6,2493809,2494009,12023
27,77,S101,5,1,2553833,2554033,9040
27,78,S101,4,2,2701558,2701758,8654
27,79,S102,4,,,,16932
27,80,S101,7,7,3038691,3038891,12313
27,81,S201,8,,,,11489
27,82,S102,8,,,,17348
27,83,S101,6,3,3471696,3471896,11993
27,84,S101,7,2,3608250,3608450,9173
27,85,S102,4,,,,12465
27,86,S102,8,,,,10994
27,87,S101,4,1,4056927,4057127,9730
27,88,S102,4,,,,14285
27,89,S102,5,,,,19384
27,90,S101,5,3,4473759,4473959,10985
28,1,S102,4,,,,15874
28,2,S101,4,4,242403,242603,10416
28,3,S102,6,,,,14306
28,4,S101,6,3,481997,482197,15644
28,5,S101,8,5,664570,664770,24299
28,6,S102,5,,,,12348
28,7,S102,7,,,,13518
28,8,S101,5,3,1130754,1130954,10635
28,9,S102,6,,,,12278
28,10,S102,7,,,,17778
28,11,S102,4,,,,14651
28,12,S102,6,,,,22066
28,13,S101,8,1,1844369,1844569,34789
28,14,S102,7,,,,21144
28,15,S102,6,,,,11963
28,16,S101,5,3,2398922,2399122,10426
28,17,S101,6,1,2505464,2505664,11593
28,18,S101,4,3,2684035,2684235,9990
28,19,S101,5,1,2776071,2776271,9168
28,20,S102,4,,,,16464
28,21,S102,7,,,,12192
28,22,S101,7,2,3215745,3215945,9206
28,23,S101,7,1,3363637,3363837,19151
28,24,S102,5,,,,19414
28,25,S101,4,4,3741786,3741986,9493
28,26,S102,8,,,,21427
28,27,S101,6,3,4016061,4016261,27447
28,28,S101,4,4,4216140,4216340,12246
28,29,S102,5,,,,19826
28,30,S102,5,,,,13650
28,31,S102,5,,,,21378
28,32,S101,4,3,244745,244945,13305
28,33,S101,8,2,354122,354322,19170
28,34,S102,5,,,,13981
28,35,S201,5,,,,10926
28,36,S102,5,,,,14004
28,37,S101,4,4,982370,982570,9418
28,38,S102,4,,,,13026
28,39,S201,8,,,,11369
28,40,S101,7,1,1323005,1323205,27563
28,41,S101,8,6,1574271,1574471,14123
28,42,S102,5,,,,17147
28,43,S101,6,3,1854381,1854581,11325
28,44,S101,4,3,2004441,2004641,11170
28,45,S102,6,,,,21273
28,46,S102,6,,,,14647
28,47,S102,7,,,,23100
28,48,S101,4,1,2586671,2586871,11111
28,49,S102,8,,,,14659
28,50,S101,8,1,2889791,2889991,13577
28,51,S102,4,,,,11254
28,52,S102,4,,,,23917
28,53,S102,6,,,,12381
28,54,S101,7,5,3533879,3534079,14192
28,55,S102,5,,,,14166
28,56,S101,8,1,3782977,3783177,10703
28,57,S202,7,5,4017403,4017603,31317
28,58,S102,6,,,,14136
28,59,S101,4,1,4279007,4279207,8909
28,60,S102,6,,,,15101
28,61,S102,6,,,,15127
28,62,S202,8,4,264999,265199,13232
28,63,S202,6,1,384213,384413,34877
28,64,S101,5,1,539441,539641,12977
28,65,S102,4,,,,15806
28,66,S102,8,,,,31821
28,67,S103,,,,,
28,68,S102,7,,,,17633
28,69,S101,8,3,1379607,1379807,10995
28,70,S102,6,,,,12296
28,71,S102,5,,,,26602
28,72,S102,5,,,,32817
28,73,S201,7,,,,11885
28,74,S102,4,,,,17404
28,75,S102,8,,,,23264
28,76,S101,5,5,2529228,2529428,13273
28,77,S102,6,,,,13690
28,78,S101,6,6,2833515,2833715,13925
28,79,S101,4,1,2895373,2895573,9186
28,80,S103,,,,,
28,81,S201,6,,,,11415
28,82,S101,4,1,3340215,3340415,7817
28,83,S101,6,1,3458262,3458462,25105
28,84,S101,8,2,3636166,3636366,12886
28,85,S103,,,,,
28,86,S102,5,,,,12799
28,87,S101,5,4,4175379,4175579,15074
28,88,S102,7,,,,25429
28,89,S201,4,,,,32562
28,90,S102,7,,,,17965
29,1,S101,5,3,112005,112205,7646
29,2,S101,4,4,278070,278270,5559
29,3,S101,4,4,393949,394149,5953
29,4,S101,7,1,447804,448004,11863
29,5,S102,7,,,,13215
29,6,S101,6,5,835291,835491,9787
29,7,S102,4,,,,7774
29,8,S101,4,4,1107398,1107598,7444
29,9,S101,6,6,1253623,1253823,8883
29,10,S102,4,,,,7385
29,11,S101,6,1,1428192,1428392,10753
29,12,S201,8,,,,13992
29,13,S101,7,1,1740149,1740349,6218
29,14,S102,7,,,,16120
29,15,S101,4,1,2068112,2068312,7452
29,16,S101,6,3,2214169,2214369,12903
29,17,S101,5,5,2413915,2414115,9566
29,18,S101,7,2,2485610,2485810,10367
29,19,S101,5,2,2648841,2649041,9846
29,20,S101,5,5,2845752,2845952,11433
29,21,S102,4,,,,10315
29,22,S101,7,1,3025657,3025857,19418
29,23,S101,4,3,3226236,3226436,10138
29,24,S102,6,,,,15645
29,25,S101,7,3,3500845,3501045,12526
29,26,S102,6,,,,10885
29,27,S101,8,6,3858320,3858520,16360
29,28,S202,7,2,3985036,3985236,18334
29,29,S102,7,,,,12631
29,30,S101,6,1,4288990,4289190,14515
29,31,S101,7,5,152050,152250,10188
29,32,S102,5,,,,13042
29,33,S101,8,6,466841,467041,10905
29,34,S102,4,,,,7399
29,35,S101,6,2,705935,706135,9967
29,36,S101,5,3,868666,868866,12994
29,37,S101,7,5,1034565,1034765,12376
29,38,S102,6,,,,8500
29,39,S101,4,4,1352691,1352891,10378
29,40,S101,8,5,1467736,1467936,10428
29,41,S101,4,1,1588451,1588651,8550
29,42,S102,8,,,,9633
29,43,S102,7,,,,8673
29,44,S102,6,,,,11989
29,45,S102,6,,,,14051
29,46,S102,6,,,,8507
29,47,S101,8,8,2615190,2615390,8310
29,48,S202,4,2,2685551,2685751,9560
29,49,S101,6,6,2863455,2863655,8128
29,50,S102,7,,,,11551
29,51,S102,7,,,,8911
29,52,S202,5,2,3259778,3259978,7974
29,53,S102,6,,,,8689
29,54,S101,6,6,3597579,3597779,9761
29,55,S102,4,,,,12714
29,56,S101,4,3,3806661,3806861,13146
29,57,S201,8,,,,8287
29,58,S102,8,,,,10113
29,59,S102,8,,,,9695
29,60,S102,5,,,,9847
29,61,S101,4,2,57846,58046,9239
29,62,S102,8,,,,13819
29,63,S102,6,,,,12934
29,64,S102,5,,,,10398
29,65,S102,6,,,,9804
29,66,S102,6,,,,10517
29,67,S101,8,3,956368,956568,8959
29,68,S102,5,,,,9944
29,69,S101,7,6,1309174,1309374,14897
29,70,S202,8,5,1462734,1462934,14450
29,71,S101,6,5,1625632,1625832,8501
29,72,S102,4,,,,8777
29,73,S101,7,2,1849387,1849587,10413
29,74,S201,5,,,,11020
29,75,S202,7,3,2144004,2144204,17770
29,76,S101,6,4,2310236,2310436,9930
29,77,S102,4,,,,8551
29,78,S102,6,,,,13155
29,79,S102,6,,,,12769
29,80,S102,4,,,,11919
29,81,S102,8,,,,7906
29,82,S101,6,6,3226265,3226465,8212
29,83,S102,8,,,,12671
29,84,S102,4,,,,10221
29,85,S201,6,,,,22445
29,86,S101,5,5,3801993,3802193,9688
29,87,S102,5,,,,8719
29,88,S101,4,1,3992901,3993101,8026
29,89,S102,5,,,,11448
29,90,S101,6,3,4275513,4275713,11454
30,1,S103,,,,,
30,2,S101,6,6,299640,299840,17610
30,3,S101,7,4,407683,407883,13771
30,4,S101,4,4,594090,594290,6957
30,5,S101,5,5,725475,725675,6580
30,6,S202,7,1,779997,780197,7821
30,7,S201,7,,,,9571
30,8,S101,8,2,1080449,1080649,9264
30,9,S201,4,,,,8232
30,10,S201,7,,,,10290
30,11,S202,4,4,1549634,1549834,7707
30,12,S101,8,3,1615160,1615360,7150
30,13,S101,4,3,1789229,1789429,9247
30,14,S101,4,2,1894604,1894804,7254
30,15,S101,8,6,2068840,2069040,8230
30,16,S102,6,,,,10283
30,17,S201,6,,,,8575
30,18,S101,4,3,2479335,2479535,10375
30,19,S101,7,7,2676413,2676613,14034
30,20,S101,7,6,2809299,2809499,7450
30,21,S102,6,,,,9218
30,22,S101,6,3,3074904,3075104,6107
30,23,S101,8,3,3219628,3219828,8729
30,24,S101,8,6,3437881,3438081,5002
30,25,S202,8,6,3609949,3610149,7024
30,26,S201,8,,,,8096
30,27,S202,5,1,3851211,3851411,4398
30,28,S101,8,6,4032616,4032816,6848
30,29,S201,8,,,,6717
30,30,S202,4,3,4319229,4319429,7315
30,31,S102,8,,,,14526
30,32,S202,4,2,289552,289752,12963
30,33,S201,8,,,,8359
30,34,S101,8,5,593673,593873,9055
30,35,S201,7,,,,6995
30,36,S202,5,4,897126,897326,9577
30,37,S201,8,,,,4615
30,38,S102,4,,,,4979
30,39,S101,4,4,1300952,1301152,7002
30,40,S102,8,,,,5741
30,41,S102,5,,,,5410
30,42,S101,4,1,1658594,1658794,5490
30,43,S202,7,5,1831162,1831362,5809
30,44,S201,8,,,,11257
30,45,S102,5,,,,9998
30,46,S101,4,3,2237156,2237356,7492
30,47,S102,8,,,,25430
30,48,S201,5,,,,5584
30,49,S202,6,1,2630811,2631011,5103
30,50,S201,5,,,,4727
30,51,S101,7,6,2937766,2937966,8845
30,52,S202,6,2,3042808,3043008,10071
30,53,S202,8,4,3201537,3201737,11499
30,54,S201,5,,,,6213
30,55,S102,4,,,,9076
30,56,S101,5,1,3550842,3551042,8772
30,57,S202,5,1,3684061,3684261,11365
30,58,S201,7,,,,7539
30,59,S202,5,5,4019861,4020061,6583
30,60,S101,4,1,4055875,4056075,6388
30,61,S102,7,,,,7157
30,62,S201,7,,,,7089
30,63,S201,5,,,,7757
30,64,S201,5,,,,8076
30,65,S101,8,5,657423,657623,9901
30,66,S202,6,4,820154,820354,6925
30,67,S101,6,3,933198,933398,5911
30,68,S101,4,2,1063583,1063783,6611
30,69,S102,5,,,,13935
30,70,S101,7,7,1409553,1409753,14726
30,71,S202,7,4,1514762,1514962,7795
30,72,S101,6,6,1705004,1705204,5314
30,73,S101,4,1,1758191,1758391,8123
30,74,S102,7,,,,6263
30,75,S102,5,,,,9274
30,76,S101,6,2,2183526,2183726,9207
30,77,S201,4,,,,6893
30,78,S102,6,,,,11492
30,79,S202,4,1,2566177,2566377,13892
30,80,S101,6,4,2714569,2714769,6356
30,81,S102,4,,,,7037
30,82,S201,6,,,,7856
30,83,S202,5,4,3105057,3105257,6568
30,84,S101,4,3,3203429,3203629,5890
30,85,S202,6,2,3305470,3305670,9318
30,86,S201,6,,,,7257
30,87,S102,7,,,,6960
30,88,S102,6,,,,15151
30,89,S101,6,5,3918212,3918412,4283
30,90,S101,4,3,4032757,4032957,6492
31,1,S102,6,,,,19670
31,2,S102,6,,,,15985
31,3,S202,5,1,361132,361332,12530
31,4,S201,4,,,,14340
31,5,S102,8,,,,27133
31,6,S202,4,2,794137,794337,18192
31,7,S202,7,2,904180,904380,15056
31,8,S101,5,5,1116098,1116298,13799
31,9,S102,8,,,,13077
31,10,S202,7,2,1372032,1372232,15823
31,11,S201,5,,,,16140
31,12,S201,8,,,,9644
31,13,S101,6,1,1788364,1788564,13016
31,14,S101,6,5,1996779,1996979,10234
31,15,S102,8,,,,13173
31,16,S102,5,,,,15429
31,17,S102,7,,,,11677
31,18,S102,4,,,,11027
31,19,S102,7,,,,9848
31,20,S102,6,,,,9593
31,21,S202,4,4,3068370,3068570,11592
31,22,S202,7,3,3137731,3137931,10002
31,23,S202,7,1,3253777,3253977,23366
31,24,S201,8,,,,9538
31,25,S202,6,1,3569568,3569768,9868
31,26,S102,6,,,,9063
31,27,S102,8,,,,11247
31,28,S102,6,,,,13502
31,29,S102,6,,,,13265
31,30,S102,4,,,,10953
31,31,S202,8,7,185063,185263,10165
31,32,S101,8,7,,,14155
31,33,S202,4,4,502188,502388,9729
31,34,S101,8,7,626404,626604,15500
31,35,S202,7,1,723942,724142,10139
31,36,S201,6,,,,353
31,37,S202,4,4,1051572,1051772,7439
31,38,S101,4,4,1150778,1150978,14577
31,39,S101,8,2,1227475,1227675,13662
31,40,S201,8,,,,34880
31,41,S201,6,,,,11148
31,42,S102,4,,,,12696
31,43,S202,8,2,1845886,1846086,10570
31,44,S101,6,5,2047466,2047666,13264
31,45,S202,5,2,2156843,2157043,9593
31,46,S202,5,2,2272555,2272755,8392
31,47,S202,5,4,2415278,2415478,9325
31,48,S101,6,5,2544996,2545196,9974
31,49,S102,4,,,,13882
31,50,S202,8,6,2831943,2832143,9150
31,51,S101,6,2,2932816,2933016,13983
31,52,S101,4,1,3071204,3071404,9724
31,53,S101,7,7,3296126,3296326,20129
31,54,S101,7,5,3420842,3421042,14111
31,55,S101,5,2,3545225,3545425,12650
31,56,S101,8,1,3668107,3668307,10852
31,57,S102,7,,,,12723
31,58,S201,7,,,,13879
31,59,S102,8,,,,17885
31,60,S102,4,,,,13628
31,61,S102,6,,,,17436
31,62,S102,8,,,,15286
31,63,S102,5,,,,20186
31,64,S102,7,,,,15443
31,65,S102,5,,,,9925
31,66,S102,8,,,,13678
31,67,S101,5,2,1043235,1043435,14152
31,68,S202,6,1,1167618,1167818,12934
31,69,S101,6,2,1314843,1315043,17776
31,70,S102,6,,,,13369
31,71,S102,5,,,,14977
31,72,S102,6,,,,12444
31,73,S101,7,2,1913746,1913946,27068
31,74,S102,8,,,,13967
31,75,S101,4,2,2274556,2274756,22842
31,76,S101,5,2,2407775,2407975,18470
31,77,S101,7,6,2607354,2607554,12357
31,78,S102,4,,,,11520
31,79,S202,8,5,2880295,2880495,12646
31,80,S102,5,,,,10532
31,81,S102,6,,,,21943
31,82,S102,4,,,,8561
31,83,S102,6,,,,21971
31,84,S102,4,,,,34214
31,85,S102,4,,,,8813
31,86,S102,7,,,,11410
31,87,S101,8,3,4015911,4016111,13021
31,88,S101,8,5,4224327,4224527,13926
31,89,S101,5,2,4362715,4362915,13594
31,90,S102,6,,,,17047
32,1,S103,,,,,
32,2,S101,4,1,259043,259243,19172
32,3,S102,6,,,,12290
32,4,S102,4,,,,9395
32,5,S101,6,4,702218,702418,8019
32,6,S202,8,3,834938,835138,13234
32,7,S101,6,2,982663,982863,9581
32,8,S101,7,1,1116882,1117082,7626
32,9,S101,8,1,1277446,1277646,6781
32,10,S101,4,3,1479693,1479893,6987
32,11,S101,8,5,1625584,1625784,6962
32,12,S101,8,2,1757136,1757336,7262
32,13,S102,6,,,,8855
32,14,S102,4,,,,7535
32,15,S102,7,,,,7271
32,16,S101,5,5,2420065,2420265,7516
32,17,S102,4,,,,12649
32,18,S102,7,,,,8497
32,19,S102,6,,,,7475
32,20,S102,8,,,,9836
32,21,S202,8,1,3083661,3083861,9215
32,22,S201,8,,,,9043
32,23,S101,8,5,3456142,3456342,7294
32,24,S102,8,,,,17332
32,25,S202,8,4,3800945,3801145,30329
32,26,S101,4,3,3966011,3966211,5840
32,27,S101,5,1,4054045,4054245,6788
32,28,S102,6,,,,8250
32,29,S102,7,,,,13230
32,30,S101,7,3,4527066,4527266,9688
32,31,S101,6,4,114834,115034,15677
32,32,S101,5,2,241051,241251,9178
32,33,S102,5,,,,7752
32,34,S101,4,3,521495,521695,9518
32,35,S102,6,,,,9896
32,36,S101,7,4,804441,804641,12738
32,37,S101,5,5,1004353,1004553,9081
32,38,S101,6,4,1103893,1104093,9169
32,39,S201,6,,,,20440
32,40,S102,7,,,,12246
32,41,S202,6,1,1515389,1515589,11557
32,42,S102,6,,,,15011
32,43,S101,7,5,1857858,1858058,8834
32,44,S102,7,,,,10746
32,45,S102,7,,,,16746
32,46,S101,4,2,2310704,2310904,9029
32,47,S201,7,,,,19095
32,48,S101,5,4,2612157,2612357,13698
32,49,S101,5,5,2784725,2784925,7930
32,50,S101,5,5,2917277,2917477,5758
32,51,S102,8,,,,13296
32,52,S202,7,6,3222231,3222431,31353
32,53,S102,8,,,,15252
32,54,S101,6,6,3590544,3590744,7090
32,55,S201,6,,,,8850
32,56,S102,6,,,,11772
32,57,S101,8,1,3925343,3925543,8038
32,58,S102,4,,,,16191
32,59,S102,4,,,,8654
32,60,S102,4,,,,8780
32,61,S101,7,5,125552,125752,12642
32,62,S102,7,,,,8486
32,63,S101,7,4,438509,438709,16332
32,64,S102,5,,,,12056
32,65,S101,5,2,716286,716486,25225
32,66,S101,4,1,852006,852206,14765
32,67,S101,5,3,1005567,1005767,10716
32,68,S102,6,,,,10087
32,69,S202,6,2,1275674,1275874,11575
32,70,S101,6,1,1393387,1393587,8149
32,71,S101,6,5,1597135,1597335,7621
32,72,S102,7,,,,13268
32,73,S102,7,,,,17885
32,74,S101,5,3,2052315,2052515,9389
32,75,S101,4,1,2158023,2158223,8528
32,76,S101,8,5,2333760,2333960,8442
32,77,S102,8,,,,9803
32,78,S102,7,,,,18241
32,79,S202,5,1,2800778,2800978,13091
32,80,S201,4,,,,10430
32,81,S101,6,2,3036538,3036738,13931
32,82,S101,5,2,3189265,3189465,14546
32,83,S201,8,,,,8779
32,84,S102,7,,,,11135
32,85,S201,8,,,,15908
32,86,S102,7,,,,11725
32,87,S101,6,3,3993417,3993617,16175
32,88,S101,7,3,4148478,4148678,17471
32,89,S101,8,8,4409748,4409948,7108
32,90,S201,7,,,,13904
33,1,S101,6,5,126873,127073,8143
33,2,S201,5,,,,7725
33,3,S101,4,3,359298,359498,6088
33,4,S201,4,,,,11591
33,5,S101,4,2,565380,565580,10755
33,6,S101,6,3,714939,715139,10446
33,7,S201,7,,,,12297
33,8,S201,8,,,,9933
33,9,S101,7,6,1197964,1198164,10953
33,10,S102,4,,,,13552
33,11,S101,5,3,1443394,1443594,9871
33,12,S101,6,5,1606292,1606492,6715
33,13,S102,8,,,,13103
33,14,S102,5,,,,10082
33,15,S102,6,,,,12679
33,16,S201,4,,,,19524
33,17,S201,4,,,,10840
33,18,S101,4,1,2376096,2376296,9066
33,19,S101,4,3,2523988,2524188,9658
33,20,S101,4,3,2644203,2644403,8464
33,21,S202,5,3,2763083,2763283,14592
33,22,S101,5,1,2855453,2855653,8577
33,23,S201,8,,,,10091
33,24,S101,6,1,3147568,3147768,8639
33,25,S102,8,,,,11273
33,26,S102,6,,,,17344
33,27,S101,6,1,3629593,3629793,9565
33,28,S102,7,,,,16411
33,29,S102,4,,,,12547
33,30,S101,6,1,4070434,4070634,12334
33,31,S101,7,6,121082,121282,8756
33,32,S101,7,3,240296,240496,9395
33,33,S101,4,1,374349,374549,9335
33,34,S201,4,,,,11354
33,35,S102,5,,,,14907
33,36,S101,7,2,751331,751531,9218
33,37,S101,8,3,927734,927934,9584
33,38,S102,7,,,,12280
33,39,S102,8,,,,22276
33,40,S102,4,,,,10656
33,41,S101,7,7,1657023,1657223,8975
33,42,S102,5,,,,10442
33,43,S102,5,,,,9289
33,44,S101,8,2,1996991,1997191,11736
33,45,S102,4,,,,10621
33,46,S101,6,3,2311115,2311315,10318
33,47,S202,4,3,2460341,2460541,12937
33,48,S201,6,,,,10257
33,49,S202,4,2,2681595,2681795,13790
33,50,S201,6,,,,10597
33,51,S101,8,5,2960706,2960906,15018
33,52,S102,7,,,,16521
33,53,S101,6,6,3346692,3346892,9096
33,54,S102,5,,,,16157
33,55,S202,4,1,3544603,3544803,13740
33,56,S201,7,,,,11086
33,57,S101,7,6,3866731,3866931,8867
33,58,S101,5,2,3971939,3972139,13694
33,59,S102,7,,,,13332
33,60,S102,5,,,,17968
33,61,S101,8,5,114005,114205,9716
33,62,S102,7,,,,12234
33,63,S101,8,6,470313,470513,14081
33,64,S102,4,,,,12870
33,65,S202,7,2,718244,718444,13662
33,66,S101,5,4,894981,895181,11195
33,67,S101,4,1,988351,988551,11700
33,68,S101,4,2,1124739,1124939,12344
33,69,S102,4,,,,11523
33,70,S101,8,8,1474710,1474910,10036
33,71,S102,4,,,,11068
33,72,S101,6,5,1710971,1711171,12984
33,73,S101,5,5,1882872,1883072,9163
33,74,S101,6,5,1996750,1996950,10196
33,75,S102,8,,,,23001
33,76,S101,4,2,2293534,2293734,10868
33,77,S102,8,,,,15009
33,78,S102,4,,,,13119
33,79,S201,8,,,,10771
33,80,S102,7,,,,13997
33,81,S102,7,,,,11701
33,82,S201,7,,,,11749
33,83,S101,8,8,3463164,3463364,12122
33,84,S101,7,3,3551532,3551732,14547
33,85,S101,6,4,3733271,3733471,13123
33,86,S101,4,3,3870992,3871192,9714
33,87,S201,6,,,,9775
33,88,S101,6,5,4149602,4149802,10424
33,89,S101,5,1,4242139,4242339,9260
33,90,S101,5,3,4404370,4404570,10074
34,1,S101,4,1,79663,79863,20131
34,2,S101,6,3,238559,238759,17045
34,3,S101,7,5,422799,422999,15108
34,4,S102,8,,,,18599
34,5,S202,6,2,734089,734289,24373
34,6,S202,8,6,935502,935702,20725
34,7,S102,7,,,,17788
34,8,S101,7,2,1218947,1219147,14382
34,9,S101,7,6,1443036,1443236,15593
34,10,S102,8,,,,17625
34,11,S102,7,,,,14547
34,12,S101,4,4,1955572,1955772,13157
34,13,S101,5,5,2093460,2093660,12370
34,14,S101,6,1,2153817,2154017,10712
34,15,S102,8,,,,17260
34,16,S101,5,3,2516127,2516327,15350
34,17,S202,8,5,2684527,2684727,19137
34,18,S102,5,,,,14382
34,19,S101,5,2,2948799,2948999,14347
34,20,S202,8,4,3116198,3116398,21225
34,21,S101,5,3,3271926,3272126,10940
34,22,S102,4,,,,15610
34,23,S102,6,,,,16235
34,24,S202,8,4,3702764,3702964,16158
34,25,S102,8,,,,13951
34,26,S102,6,,,,14794
34,27,S102,4,,,,13398
34,28,S102,6,,,,16021
34,29,S102,6,,,,28626
34,30,S101,4,1,4605954,4606154,10501
34,31,S202,7,1,65349,65549,23831
34,32,S102,6,,,,17827
34,33,S102,4,,,,12790
34,34,S102,6,,,,13360
34,35,S101,5,5,732446,732646,11285
34,36,S101,4,3,819980,820180,13230
34,37,S102,4,,,,14135
34,38,S102,4,,,,14035
34,39,S101,5,2,1178622,1178822,10174
34,40,S102,5,,,,18467
34,41,S102,7,,,,16476
34,42,S102,8,,,,14153
34,43,S101,4,3,1821544,1821744,8937
34,44,S202,7,3,1940924,1941124,20770
34,45,S102,4,,,,18439
34,46,S102,6,,,,17500
34,47,S102,5,,,,19897
34,48,S102,6,,,,19378
34,49,S102,4,,,,13474
34,50,S102,5,,,,14588
34,51,S102,4,,,,13999
34,52,S202,8,1,3043527,3043727,27770
34,53,S103,,,,,
34,54,S202,7,1,3357151,3357351,17548
34,55,S102,5,,,,14454
34,56,S202,8,6,3719128,3719328,17331
34,57,S202,8,5,3871021,3871221,14595
34,58,S102,4,,,,12994
34,59,S101,6,2,4115285,4115485,17550
34,60,S202,6,5,4314197,4314397,17935
34,61,S202,6,5,108032,108232,16373
34,62,S101,4,3,216408,216608,13256
34,63,S101,7,1,311946,312146,10198
34,64,S101,4,1,475177,475377,10103
34,65,S102,5,,,,14233
34,66,S101,6,6,825483,825683,17943
34,67,S102,8,,,,13799
34,68,S202,6,5,1128936,1129136,17700
34,69,S101,6,2,1224474,1224674,13855
34,70,S102,7,,,,13326
34,71,S101,7,4,1571945,1572145,29455
34,72,S101,8,2,1726006,1726206,13169
34,73,S101,6,6,1983107,1983307,10688
34,74,S101,6,1,2041797,2041997,10859
34,75,S102,7,,,,17171
34,76,S102,6,,,,13249
34,77,S101,4,3,2542162,2542362,12224
34,78,S101,7,6,2707394,2707594,12412
34,79,S202,5,1,2801932,2802132,21086
34,80,S102,7,,,,15913
34,81,S101,4,3,3126227,3126427,13179
34,82,S102,5,,,,16391
34,83,S102,7,,,,15921
34,84,S102,6,,,,13813
34,85,S101,7,7,3789156,3789356,11689
34,86,S102,5,,,,12233
34,87,S102,5,,,,13566
34,88,S101,7,7,4228996,4229196,14490
34,89,S202,7,6,4362382,4362582,14093
34,90,S102,4,,,,18911
35,1,S101,6,4,117534,117734,14167
35,2,S101,6,5,284601,284801,9404
35,3,S101,6,6,467006,467206,9479
35,4,S201,6,,,,11623
35,5,S101,7,7,761456,761656,9539
35,6,S101,5,5,895676,895876,7449
35,7,S101,8,6,1021893,1022093,8050
35,8,S101,4,2,1140440,1140640,6923
35,9,S102,6,,,,8539
35,10,S101,5,3,1419383,1419583,6499
35,11,S101,8,4,1564774,1564974,8734
35,12,S101,8,1,1698161,1698361,10081
35,13,S102,7,,,,4586
35,14,S102,7,,,,6674
35,15,S101,5,3,2221034,2221234,32378
35,16,S202,6,4,2392269,2392469,10084
35,17,S202,5,1,2480304,2480504,10644
35,18,S201,5,,,,10071
35,19,S102,7,,,,7564
35,20,S201,8,,,,8798
35,21,S101,8,8,3150569,3150769,7216
35,22,S102,5,,,,8590
35,23,S102,4,,,,9033
35,24,S101,6,3,3486869,3487069,8161
35,25,S102,6,,,,7313
35,26,S101,7,7,3856849,3857049,6736
35,27,S101,6,4,3954054,3954254,9628
35,28,S101,8,3,4088274,4088474,8863
35,29,S201,7,,,,12534
35,30,S102,7,,,,8329
35,31,S102,4,,,,8092
35,32,S101,4,1,170442,170642,5845
35,33,S101,4,1,286822,287022,7685
35,34,S101,5,5,481732,481932,8070
35,35,S101,7,3,566099,566299,8266
35,36,S102,5,,,,8150
35,37,S101,5,2,846043,846243,8683
35,38,S202,6,2,979430,979630,9095
35,39,S101,5,1,1094642,1094842,10343
35,40,S202,5,3,1258040,1258240,11750
35,41,S101,5,1,1347575,1347775,6810
35,42,S102,4,,,,9416
35,43,S102,4,,,,8076
35,44,S102,4,,,,13029
35,45,S102,7,,,,8053
35,46,S202,6,1,2002001,2002201,7381
35,47,S202,8,6,2200580,2200780,9210
35,48,S101,6,1,2287614,2287814,10678
35,49,S102,4,,,,8644
35,50,S201,4,,,,11495
35,51,S102,6,,,,9180
35,52,S101,6,1,2807820,2808020,8141
35,53,S101,4,3,2983057,2983257,10375
35,54,S101,6,4,3118110,3118310,6719
35,55,S201,5,,,,11154
35,56,S201,8,,,,13147
35,57,S201,8,,,,8980
35,58,S102,4,,,,10177
35,59,S101,7,6,3849566,3849766,5795
35,60,S102,8,,,,9184
35,61,S201,8,,,,11822
35,62,S101,7,3,246581,246781,10040
35,63,S202,6,3,409812,410012,11361
35,64,S101,7,2,527358,527558,7360
35,65,S101,6,2,687755,687955,5595
35,66,S101,7,7,923015,923215,7482
35,67,S201,8,,,,9677
35,68,S201,8,,,,7244
35,69,S201,7,,,,9821
35,70,S102,4,,,,9681
35,71,S101,8,8,1676980,1677180,12588
35,72,S101,8,2,1751677,1751877,14579
35,73,S202,8,1,1919243,1919443,9771
35,74,S202,6,2,2091811,2092011,8660
35,75,S201,4,,,,10493
35,76,S201,5,,,,12793
35,77,S101,7,1,2428278,2428478,12258
35,78,S102,6,,,,8698
35,79,S102,4,,,,8185
35,80,S201,8,,,,9872
35,81,S201,4,,,,9571
35,82,S102,8,,,,14025
35,83,S102,6,,,,8311
35,84,S202,8,6,3519377,3519577,7919
35,85,S201,5,,,,20887
35,86,S102,5,,,,6130
35,87,S102,4,,,,7323
35,88,S201,7,,,,8497
35,89,S102,8,,,,11711
35,90,S202,6,3,4331532,4331732,15041
36,1,S101,5,3,74229,74429,21250
36,2,S101,7,7,296817,297017,10824
36,3,S101,8,4,398191,398391,10323
36,4,S101,5,4,575761,575961,9490
36,5,S103,,,,,
36,6,S102,4,,,,13164
36,7,S101,7,5,1027607,1027807,18742
36,8,S101,4,2,1156825,1157025,13024
36,9,S102,7,,,,13168
36,10,S202,6,3,1460778,1460978,14048
36,11,S201,4,,,,14706
36,12,S202,8,3,1701874,1702074,16718
36,13,S201,8,,,,7929
36,14,S101,6,4,2038007,2038207,12971
36,15,S201,7,,,,7362
36,16,S101,5,4,2331623,2331823,9477
36,17,S102,4,,,,9577
36,18,S101,7,2,2557379,2557579,12752
36,19,S102,8,,,,25134
36,20,S101,5,4,2943532,2943732,9948
36,21,S201,8,,,,9649
36,22,S201,6,,,,18601
36,23,S201,6,,,,12653
36,24,S101,8,5,3522762,3522962,11064
36,25,S102,8,,,,11677
36,26,S101,8,4,3865731,3865931,9384
36,27,S101,4,4,4062309,4062509,8363
36,28,S202,5,3,4147009,4147209,16890
36,29,S201,8,,,,7615
36,30,S101,5,5,4474806,4475006,8756
36,31,S102,5,,,,10353
36,32,S101,5,4,261926,262126,11908
36,33,S201,5,,,,11495
36,34,S101,8,3,502188,502388,10908
36,35,S101,4,4,714439,714639,9667
36,36,S102,5,,,,8219
36,37,S101,5,1,905015,905215,8583
36,38,S201,4,,,,10957
36,39,S102,7,,,,9545
36,40,S102,4,,,,8039
36,41,S201,4,,,,13152
36,42,S201,6,,,,11249
36,43,S102,5,,,,12562
36,44,S101,4,3,1824712,1824912,10933
36,45,S101,5,1,1917749,1917949,9279
36,46,S101,5,4,2094152,2094352,8972
36,47,S101,7,1,2185188,2185388,8646
36,48,S101,8,1,2346752,2346952,8880
36,49,S102,4,,,,9639
36,50,S101,8,7,2727903,2728103,11112
36,51,S101,7,7,2926149,2926349,12137
36,52,S102,7,,,,13762
36,53,S102,5,,,,10074
36,54,S102,4,,,,9825
36,55,S102,5,,,,13003
36,56,S101,5,2,3559900,3560100,12542
36,57,S101,5,5,3759646,3759846,7459
36,58,S101,5,2,3829173,3829373,10738
36,59,S102,6,,,,15879
36,60,S201,7,,,,13829
36,61,S202,8,3,88358,88558,10596
36,62,S102,6,,,,12332
36,63,S101,4,1,370469,370669,10710
36,64,S101,7,3,520195,520395,10782
36,65,S102,4,,,,10507
36,66,S101,8,8,895844,896044,8900
36,67,S102,6,,,,15544
36,68,S202,5,1,1107095,1107295,8262
36,69,S101,4,4,1283998,1284198,12356
36,70,S101,5,1,1344355,1344555,13682
36,71,S101,8,5,1539433,1539633,11787
36,72,S101,6,4,1704164,1704364,11277
36,73,S202,8,5,1868396,1868596,13962
36,74,S101,7,5,2031127,2031327,10024
36,75,S201,5,,,,7594
36,76,S101,5,1,2251381,2251581,10816
36,77,S101,5,4,2429452,2429652,9162
36,78,S102,6,,,,11963
36,79,S102,5,,,,16659
36,80,S102,6,,,,12118
36,81,S101,5,5,3040527,3040727,14247
36,82,S201,5,,,,8778
36,83,S201,8,,,,11193
36,84,S201,5,,,,11073
36,85,S202,5,3,3523052,3523252,15280
36,86,S101,7,3,3644600,3644800,6647
36,87,S201,8,,,,6795
36,88,S101,5,1,3931380,3931580,9737
36,89,S101,8,2,4079939,4080139,8483
36,90,S101,8,4,4284020,4284220,9357
37,1,S102,8,,,,13243
37,2,S201,7,,,,15467
37,3,S102,8,,,,12349
37,4,S101,5,1,569424,569624,19751
37,5,S101,4,3,741993,742193,14640
37,6,S102,6,,,,9702
37,7,S101,6,2,1001096,1001296,12970
37,8,S101,5,5,1215014,1215214,8842
37,9,S101,6,5,1328559,1328759,8934
37,10,S102,8,,,,13801
37,11,S101,6,1,1600167,1600367,10818
37,12,S102,5,,,,10777
37,13,S102,6,,,,15595
37,14,S102,4,,,,14491
37,15,S102,8,,,,9850
37,16,S201,4,,,,13455
37,17,S101,6,1,2446169,2446369,16195
37,18,S101,4,4,2663422,2663622,12825
37,19,S102,4,,,,13420
37,20,S101,5,4,2890512,2890712,14072
37,21,S102,4,,,,18628
37,22,S102,6,,,,16409
37,23,S101,8,7,3355529,3355729,21134
37,24,S101,5,1,3458570,3458770,12356
37,25,S102,6,,,,15346
37,26,S202,7,1,3749519,3749719,26763
37,27,S101,4,4,3973108,3973308,9789
37,28,S202,5,2,4044970,4045170,33299
37,29,S102,4,,,,10152
37,30,S101,5,3,4319078,4319278,12843
37,31,S102,6,,,,9212
37,32,S101,6,2,244920,245120,9619
37,33,S101,8,6,449834,450034,9820
37,34,S101,8,3,584054,584254,16892
37,35,S101,7,7,844491,844691,9529
37,36,S201,8,,,,12609
37,37,S102,8,,,,11355
37,38,S101,6,3,1269826,1270026,9586
37,39,S101,8,6,1460569,1460769,9145
37,40,S102,4,,,,10545
37,41,S102,6,,,,10259
37,42,S101,8,7,1920584,1920784,10272
37,43,S102,5,,,,11682
37,44,S102,6,,,,14869
37,45,S102,7,,,,24386
37,46,S101,5,3,2508151,2508351,12743
37,47,S101,8,3,2645205,2645405,11542
37,48,S101,7,3,2823776,2823976,11913
37,49,S101,5,5,3036694,3036894,9106
37,50,S101,4,4,3156074,3156274,9546
37,51,S101,7,6,3284459,3284659,8878
37,52,S102,5,,,,24592
37,53,S201,8,,,,27856
37,54,S101,4,2,3714963,3715163,12932
37,55,S102,5,,,,10234
37,56,S101,5,3,3987071,3987271,11494
37,57,S102,5,,,,11420
37,58,S101,7,4,4273184,4273384,12118
37,59,S103,,,,,
37,60,S101,7,1,4589143,4589343,13422
37,61,S102,6,,,,14419
37,62,S101,8,3,235916,236116,13944
37,63,S103,,,,,
37,64,S101,6,5,581887,582087,11333
37,65,S101,6,6,765960,766160,10053
37,66,S102,4,,,,9972
37,67,S102,6,,,,18024
37,68,S101,4,3,1129270,1129470,11700
37,69,S101,8,7,1308008,1308208,15971
37,70,S102,6,,,,9060
37,71,S101,5,5,1630136,1630336,9407
37,72,S101,6,4,1730009,1730209,14919
37,73,S101,5,5,1917583,1917783,7991
37,74,S201,8,,,,23131
37,75,S101,6,3,2173685,2173885,30271
37,76,S101,6,2,2328413,2328613,15911
37,77,S101,4,2,2482974,2483174,9824
37,78,S102,6,,,,10205
37,79,S102,6,,,,23363
37,80,S102,6,,,,14549
37,81,S102,5,,,,23954
37,82,S101,8,6,3272454,3272654,14454
37,83,S102,8,,,,21819
37,84,S101,4,1,3571739,3571939,10227
37,85,S102,4,,,,9169
37,86,S101,7,4,3854351,3854551,11085
37,87,S101,8,3,4004077,4004277,11383
37,88,S102,4,,,,31079
37,89,S102,7,,,,24903
37,90,S102,7,,,,20088
38,1,S102,7,,,,8924
38,2,S201,6,,,,13815
38,3,S101,4,3,398525,398725,13374
38,4,S101,4,4,556254,556454,11718
38,5,S101,7,6,686806,687006,10483
38,6,S202,8,6,850037,850237,13529
38,7,S102,4,,,,10064
38,8,S102,4,,,,13493
38,9,S102,7,,,,13154
38,10,S102,6,,,,10357
38,11,S102,7,,,,9974
38,12,S101,4,4,1725551,1725751,11661
38,13,S101,7,5,1841930,1842130,11866
38,14,S101,5,3,1978318,1978518,9538
38,15,S101,7,3,2112371,2112571,9351
38,16,S101,6,1,2246257,2246457,10872
38,17,S102,4,,,,8357
38,18,S102,8,,,,12764
38,19,S101,4,4,2756626,2756826,8726
38,20,S102,6,,,,9154
38,21,S102,6,,,,12432
38,22,S101,4,1,3112267,3112467,8417
38,23,S101,7,1,3230981,3231181,14356
38,24,S101,6,2,3412386,3412586,9435
38,25,S102,6,,,,11587
38,26,S101,8,3,3724844,3725044,9466
38,27,S102,6,,,,7787
38,28,S102,6,,,,9366
38,29,S101,8,1,4167352,4167552,10532
38,30,S101,7,4,4387440,4387640,9184
38,31,S101,5,5,174058,174258,7549
38,32,S101,7,1,229580,229780,8722
38,33,S101,6,6,481847,482047,8340
38,34,S102,5,,,,9514
38,35,S102,8,,,,10354
38,36,S101,7,4,892176,892376,10292
38,37,S201,7,,,,12478
38,38,S101,7,6,1230310,1230510,8453
38,39,S101,4,4,1383038,1383238,9079
38,40,S101,7,1,1440060,1440260,7632
38,41,S102,4,,,,7972
38,42,S101,6,5,1775360,1775560,9864
38,43,S101,6,2,1881402,1881602,8005
38,44,S102,5,,,,7432
38,45,S102,4,,,,8419
38,46,S102,8,,,,9466
38,47,S101,5,4,2483474,2483674,13790
38,48,S101,7,2,2593351,2593551,6404
38,49,S101,7,2,2752581,2752781,7784
38,50,S101,4,1,2898972,2899172,7158
38,51,S101,4,2,3030691,3030891,8631
38,52,S102,7,,,,9604
38,53,S101,7,6,3368658,3368858,8616
38,54,S102,6,,,,8091
38,55,S101,7,4,3648436,3648636,7964
38,56,S101,6,5,3823339,3823539,7616
38,57,S101,5,1,3912874,3913074,6423
38,58,S101,5,3,4072104,4072304,6717
38,59,S101,7,5,4231667,4231867,7925
38,60,S102,6,,,,6467
38,61,S101,7,1,47675,47875,8304
38,62,S102,6,,,,7794
38,63,S102,8,,,,10307
38,64,S103,,,,,
38,65,S102,5,,,,7524
38,66,S102,7,,,,14296
38,67,S102,8,,,,9349
38,68,S101,6,2,1172954,1173154,8150
38,69,S102,7,,,,8023
38,70,S101,5,3,1494749,1494949,8250
38,71,S102,6,,,,8208
38,72,S101,8,5,1802704,1802904,7983
38,73,S102,6,,,,7325
38,74,S101,7,6,2137837,2138037,16185
38,75,S201,8,,,,10195
38,76,S101,8,5,2451461,2451661,10315
38,77,S102,8,,,,8889
38,78,S101,5,1,2747912,2748112,8121
38,79,S102,5,,,,8180
38,80,S101,8,8,3132231,3132431,14834
38,81,S101,6,2,3209262,3209462,11973
38,82,S102,8,,,,12399
38,83,S102,8,,,,10884
38,84,S101,5,2,3717130,3717330,11787
38,85,S101,4,3,3867523,3867723,8279
38,86,S101,8,4,4000242,4000442,9653
38,87,S101,8,4,4176979,4177179,11285
38,88,S101,6,2,4326872,4327072,21362
38,89,S101,7,3,4501107,4501307,9187
38,90,S101,4,2,4648999,4649199,6740
39,1,S103,,,,,
39,2,S102,6,,,,18867
39,3,S102,5,,,,26808
39,4,S202,7,4,549207,549407,18406
39,5,S202,4,2,673590,673790,14737
39,6,S101,5,5,842657,842857,11755
39,7,S101,6,1,902347,902547,21332
39,8,S201,6,,,,17248
39,9,S101,5,3,1228309,1228509,19446
39,10,S102,6,,,,15914
39,11,S102,8,,,,14418
39,12,S202,6,5,1736511,1736711,15408
39,13,S102,8,,,,16439
39,14,S101,6,3,2027126,2027326,16398
39,15,S102,5,,,,15799
39,16,S202,4,2,2308238,2308438,18689
39,17,S102,6,,,,18500
39,18,S201,8,,,,15137
39,19,S101,4,1,2725570,2725770,14154
39,20,S201,8,,,,19286
39,21,S202,7,5,3074541,3074741,14328
39,22,S201,5,,,,12167
39,23,S101,6,2,3299130,3299330,10801
39,24,S101,4,2,3448523,3448723,17093
39,25,S202,5,3,3590079,3590279,14707
39,26,S101,8,1,3682616,3682816,16399
39,27,S201,6,,,,16191
39,28,S202,8,4,4045259,4045459,17822
39,29,S202,6,1,4169142,4169342,19418
39,30,S201,4,,,,16030
39,31,S101,6,5,103705,103905,12582
39,32,S101,8,2,212415,212615,13620
39,33,S201,8,,,,16529
39,34,S202,7,5,600735,600935,12169
39,35,S102,5,,,,13296
39,36,S102,8,,,,18787
39,37,S101,7,6,1084927,1085127,12149
39,38,S101,7,3,1207309,1207509,19220
39,39,S101,7,2,1365205,1365405,15603
39,40,S201,5,,,,13447
39,41,S201,4,,,,13979
39,42,S101,7,4,1787039,1787239,19642
39,43,S102,4,,,,15658
39,44,S202,4,2,2057146,2057346,25908
39,45,S201,4,,,,16967
39,46,S201,8,,,,15059
39,47,S202,4,1,2433128,2433328,13603
39,48,S202,5,1,2538670,2538870,14350
39,49,S101,8,8,2778098,2778298,9342
39,50,S102,6,,,,12463
39,51,S102,4,,,,16288
39,52,S101,5,5,3189595,3189795,6735
39,53,S202,7,4,3286800,3287000,19301
39,54,S102,5,,,,13099
39,55,S202,8,1,3535565,3535765,14438
39,56,S202,5,1,3698630,3698830,11150
39,57,S202,6,1,3815843,3816043,12865
39,58,S101,8,6,4019924,4020124,14791
39,59,S101,6,5,4187490,4187690,19127
39,60,S201,6,,,,16257
39,61,S102,8,,,,18768
39,62,S102,6,,,,16392
39,63,S102,5,,,,13066
39,64,S101,5,5,612065,612265,8132
39,65,S102,7,,,,12645
39,66,S102,8,,,,13843
39,67,S102,7,,,,12041
39,68,S102,8,,,,23820
39,69,S102,4,,,,19340
39,70,S202,5,3,1528262,1528462,12700
39,71,S102,4,,,,13098
39,72,S202,8,2,1756185,1756385,20357
39,73,S101,6,2,1925086,1925286,20421
39,74,S101,5,5,2146507,2146707,5750
39,75,S102,7,,,,22197
39,76,S102,4,,,,14736
39,77,S101,8,8,2619361,2619561,19367
39,78,S102,7,,,,15261
39,79,S202,5,1,2854787,2854987,13440
39,80,S102,6,,,,13467
39,81,S102,6,,,,14656
39,82,S201,8,,,,13208
39,83,S101,8,6,3512381,3512581,12074
39,84,S101,8,6,3691619,3691819,12173
39,85,S102,6,,,,21730
39,86,S102,8,,,,16639
39,87,S101,7,7,4248840,4249040,6738
39,88,S102,5,,,,12449
39,89,S102,7,,,,12787
39,90,S101,7,6,4676843,4677043,9762
40,1,S102,5,,,,12741
40,2,S102,5,,,,9251
40,3,S202,8,4,367149,367349,6584
40,4,S101,7,5,536383,536583,7595
40,5,S101,5,4,682608,682808,7522
40,6,S101,4,1,772143,772343,8183
40,7,S102,5,,,,7593
40,8,S102,7,,,,7176
40,9,S102,4,,,,10563
40,10,S101,4,1,1303854,1304054,6935
40,11,S202,7,7,1526109,1526309,5735
40,12,S201,6,,,,7825
40,13,S202,6,2,1703679,1703879,9824
40,14,S202,4,2,1833731,1833931,9867
40,15,S101,6,4,1963783,1963983,5236
40,16,S102,6,,,,7395
40,17,S101,5,1,2211214,2211414,8130
40,18,S201,5,,,,6917
40,19,S102,6,,,,7670
40,20,S102,5,,,,9511
40,21,S201,8,,,,10191
40,22,S102,8,,,,6471
40,23,S102,4,,,,11178
40,24,S202,5,3,3219280,3219480,12078
40,25,S101,5,5,3385680,3385880,4404
40,26,S201,6,,,,7398
40,27,S102,4,,,,6902
40,28,S202,5,4,3725314,3725514,5416
40,29,S201,8,,,,5252
40,30,S101,6,6,4038605,4038805,5929
40,31,S202,5,3,88024,88224,8138
40,32,S101,6,3,202069,202269,6621
40,33,S201,6,,,,5217
40,34,S101,6,5,501021,501221,7653
40,35,S201,7,,,,5939
40,36,S102,7,,,,8408
40,37,S101,6,4,934693,934893,5169
40,38,S102,7,,,,8197
40,39,S102,8,,,,9731
40,40,S102,6,,,,16039
40,41,S102,5,,,,5853
40,42,S102,6,,,,6396
40,43,S101,7,4,1846555,1846755,6176
40,44,S101,8,5,2019790,2019990,9871
40,45,S202,6,3,2168349,2168549,6411
40,46,S202,7,5,2323244,2323444,7739
40,47,S101,5,3,2437123,2437323,6641
40,48,S101,6,6,2630533,2630733,4755
40,49,S202,8,4,2725737,2725937,7071
40,50,S201,7,,,,5972
40,51,S101,6,4,3021521,3021721,6941
40,52,S102,4,,,,8429
40,53,S102,4,,,,17215
40,54,S101,5,1,3370826,3371026,5071
40,55,S202,7,1,3500378,3500578,12752
40,56,S102,4,,,,7705
40,57,S102,4,,,,9958
40,58,S201,8,,,,5825
40,59,S202,4,3,4068603,4068803,10333
40,60,S101,6,6,4233168,4233368,6321
40,61,S102,5,,,,7250
40,62,S102,4,,,,6164
40,63,S102,7,,,,9151
40,64,S202,8,6,540957,541157,6811
40,65,S201,8,,,,7083
40,66,S101,8,3,809397,809597,5564
40,67,S102,8,,,,6086
40,68,S101,7,6,1197551,1197751,11160
40,69,S102,6,,,,6527
40,70,S101,8,8,1555026,1555226,5089
40,71,S101,8,2,1622219,1622419,6431
40,72,S102,8,,,,4679
40,73,S102,6,,,,7337
40,74,S202,6,3,2127586,2127786,5741
40,75,S101,6,6,2315828,2316028,4317
40,76,S102,4,,,,9752
40,77,S202,5,4,2530580,2530780,9581
40,78,S201,7,,,,10152
